adisAccelX,adisAccelY,adisAccelZ,adisGyroX,adisGyroY,adisGyroZ,adisTemp,adisDataCNT,lsmMagX,lsmMagY,lsmMagZ,mpuAccelX,mpuAccelY,mpuAccelZ,mpuGyroX,mpuGyroY,mpuGyroZ,mpuTemp,year,month,day,hour,min,sec,fixType,fLon,fLat,height,hMSL,hAcc,vAcc,gSpeed,headMot,padding
-0.07566819915771485,0.016001637268066405,9.827515919494628,0.0007101785051081848,0.007283632346965485,-0.001898860475787964,29.899999618530273,50808,18.75,-19.350000381469727,-71.55000305175781,-0.01674804650247097,0.083740234375,10.07275390625,-0.03808322176337242,0.0037284272257238626,-0.011185280978679657,39.02411651611328,,,,,,,,,,,,,,,,2779096485
-0.07385484924316406,0.010217317962646483,9.825008908843994,-0.0011171294905838014,0.007385584810695801,-0.001258463448663025,30.0,50809,,,,-0.07177734375,0.20097656548023224,10.063183784484863,-0.03648532181978226,0.007456854451447725,-0.011451597325503826,39.02411651611328,,,,,,,,,,,,,,,,2779096485
-0.07306612091064453,0.01757778549194336,9.827066862487793,-0.0009187705960551453,0.0060697701883520505,-0.0019772106745196533,30.0,50810,,,,-0.05024414137005806,0.13876953721046448,10.079931259155273,-0.03648532181978226,0.003994743339717388,-0.009321067482233047,39.02411651611328,,,,,,,,,,,,,,,,2779096485
-0.07078304061889648,0.015777781677246094,9.825772552490234,-0.0010968628348275757,0.007327168372586365,-0.001709316644406891,30.0,50811,,,,-0.07177734375,0.11005859076976776,10.060791015625,-0.037550587207078934,0.0055926404893398285,-0.006924221757799387,39.11823654174805,,,,,,,,,,,,,,,,2779096485
-0.0762718391418457,0.019036398315429685,9.822834952545165,-0.0026664301019929506,0.007146319762104645,-0.0017032246634552002,30.0,50812,17.850000381469727,-19.799999237060547,-70.80000305175781,-0.083740234375,0.12441406399011612,10.142138481140137,-0.03621900454163551,0.003195794764906168,-0.006657905410975218,39.02411651611328,,,,,,,,,,,,,,,,2779096485
-0.07463838119506835,0.019300927734375,9.823902042388916,-0.001092901382733307,0.006316605272289734,-0.004603839834294891,30.0,50813,,,,-0.04067382961511612,0.095703125,10.149316787719727,-0.03808322176337242,0.0021305298432707787,-0.007723170332610607,39.02411651611328,,,,,,,,,,,,,,,,2779096485
-0.0770565299987793,0.014693943786621094,9.82801032333374,-0.0014464426729144286,0.007678659028742218,-0.002524410379937744,30.0,50814,,,,-0.08134765923023224,0.10288085788488388,10.137353897094727,-0.036751639097929,0.003195794764906168,-0.010386332869529724,39.02411651611328,,,,,,,,,,,,,,,,2779096485
-0.0771463264465332,0.020354447174072265,9.821448640441893,-0.00179377213989563,0.0069701117097904965,-0.0014339457895851135,30.0,50815,,,,-0.04545898362994194,0.155517578125,10.16845703125,-0.03781690448522568,0.006924221757799387,-0.006657905410975218,39.02411651611328,,,,,,,,,,,,,,,,2779096485
-0.07428024215698242,0.017254600524902342,9.82501784362793,-0.0010963168868078613,0.0072314410478613285,-0.002433490060947266,30.100000381469727,50816,18.0,-19.5,-70.80000305175781,-0.05742187425494194,0.08852539211511612,10.130175590515137,-0.03302321210503578,0.0037284272257238626,-0.009321067482233047,39.02411651611328,,,,,,,,,,,,,,,,2779096485
-0.07946297760009766,0.020384130096435547,9.823712879180908,-0.0007511046328787231,0.008321386321804963,-0.000808362595921936,30.100000381469727,50817,,,,-0.10048828274011612,0.16508789360523224,10.139745712280273,-0.035686373710632324,0.007190538104623556,-0.011451597325503826,39.11823654174805,,,,,,,,,,,,,,,,2779096485
-0.07857656478881836,0.01918215866088867,9.818561808013916,-0.0014409565611065674,0.007422975592143555,-0.001979687414316406,30.100000381469727,50818,,,,0.009570312686264515,0.14833983778953552,10.139745712280273,-0.03808322176337242,0.004527375567704439,-0.012250546365976334,38.93000030517578,,,,,,,,,,,,,,,,2779096485
-0.07643890838623046,0.015934159088134767,9.829370391845703,-0.0012221579053520203,0.007507271297967987,-0.0013426726017526246,30.200000762939453,50821,17.549999237060547,-19.799999237060547,-71.4000015258789,-0.095703125,0.13637694716453552,10.115819931030273,-0.03648532181978226,0.002929478418081999,-0.007190538104623556,39.02411651611328,,,,,,,,,,,,,,,,2779096485
-0.07643890838623046,0.015934159088134767,9.829370391845703,-0.0012221579053520203,0.007507271297967987,-0.0013426726017526246,30.200000762939453,50822,,,,-0.13637694716453552,0.11962890625,10.161279678344727,-0.03595269098877907,0.004261059686541557,-0.012783179059624672,38.93000030517578,,,,,,,,,,,,,,,,2779096485
-0.07466481170654296,0.014742692565917969,9.82870499343872,-0.002705139148171234,0.007593218163656922,-0.0016095080253393556,30.200000762939453,50823,,,,-0.11962890625,0.17705078423023224,10.017724990844727,-0.03728426992893219,0.006125273182988167,-0.011185280978679657,39.02411651611328,,,,,,,,,,,,,,,,2779096485
-0.0777133674621582,0.014815554046630859,9.828297171020507,0.0009580189323504639,0.007856658056877136,-0.002709939496003113,30.200000762939453,50824,18.0,-19.649999618530273,-71.25,-0.0478515625,0.05742187425494194,10.099072456359863,-0.03834953531622887,0.0034621108788996935,-0.009054751135408878,38.93000030517578,,,,,,,,,,,,,,,,2779096485
-0.07530927505493164,0.01335129623413086,9.826707452392577,-0.0015697004252189636,0.0069719892383461,-0.0009773201922181703,30.200000762939453,50825,,,,-0.10048828274011612,0.16987304389476776,10.111035346984863,-0.03781690448522568,0.0050600082613527775,-0.017576871439814568,39.02411651611328,,,,,,,,,,,,,,,,2779096485
-0.07216580123901367,0.01412925796508789,9.827595547485352,-0.002093450997400055,0.007064174558845672,-0.0006135656793267823,30.200000762939453,50826,,,,-0.05502929538488388,0.12919922173023224,10.156494140625,-0.03728426992893219,0.006391589529812336,-0.009853700175881386,39.02411651611328,,,,,,,,,,,,,,,,2779096485
-0.07501558609008789,0.010698450469970703,9.82716604232788,-0.0006112287554862977,0.0077541063819056705,-0.004062592293872223,30.200000762939453,50827,,,,-0.05502929538488388,0.12919922173023224,10.039258003234863,-0.03595269098877907,0.005858956836163998,-0.012783179059624672,39.02411651611328,,,,,,,,,,,,,,,,2779096485
-0.07412375259399413,0.011110646820068359,9.822115160369872,-0.002797537521556549,0.009219963499033356,-7.53008793045044e-05,30.200000762939453,50828,18.149999618530273,-20.25,-71.0999984741211,-0.095703125,0.12202148139476776,10.0966796875,-0.033289529383182526,0.0010652649216353893,-0.011451597325503826,39.11823654174805,,,,,,,,,,,,,,,,2779096485
-0.07908524932861327,0.011633948516845703,9.817079792785645,-0.0020049941024009705,0.006701059204611511,-0.0011559916685237122,30.200000762939453,50829,,,,-0.07177734375,0.15312500298023224,10.146924018859863,-0.03834953531622887,0.003195794764906168,-0.010120016522705555,39.02411651611328,,,,,,,,,,,,,,,,2779096485
-0.060944198608398434,0.004976039123535156,9.837554541778564,-0.002003003389499817,0.006068864713587647,-0.0016971593141142274,30.200000762939453,50830,,,,-0.14833983778953552,0.1435546875,10.12060546875,-0.03728426992893219,0.002396845957264304,-0.007723170332610607,39.02411651611328,,,,,,,,,,,,,,,,2779096485
-0.059921969604492184,-0.010237168884277344,9.863897724151611,-0.002592960145925293,0.007810412264865722,-0.0024234898911227416,30.200000762939453,50831,,,,-0.05024414137005806,0.13637694716453552,10.084716796875,-0.035153742879629135,0.004261059686541557,-0.006924221757799387,39.02411651611328,,,,,,,,,,,,,,,,2779096485
-0.08825667419433593,0.017998468017578123,9.77716583251953,0.0007428022282374572,0.009029101402921753,-0.001712545727206421,30.30000114440918,50832,18.75,-20.700000762939453,-70.80000305175781,-0.0478515625,0.095703125,10.044042587280273,-0.03781690448522568,0.0013315811520442367,-0.010652649216353893,39.11823654174805,,,,,,,,,,,,,,,,2779096485
-0.06355319290161132,-0.0030697898864746093,9.840530572509765,-0.004572108270124664,0.0067922391818064885,-0.0005088768175952148,30.30000114440918,50833,,,,-0.035888671875,0.107666015625,10.125391006469727,-0.036751639097929,0.004793691914528608,-0.007989486679434776,39.02411651611328,,,,,,,,,,,,,,,,2779096485
-0.04726680145263672,-0.003049378204345703,9.868716226959227,-0.0010837001612303161,0.007145926945846558,-0.0015184612061979676,30.30000114440918,50834,,,,-0.13876953721046448,0.13398437201976776,10.058398246765137,-0.037550587207078934,0.0037284272257238626,-0.009853700175881386,39.02411651611328,,,,,,,,,,,,,,,,2779096485
-0.08843716430664063,0.012474977111816405,9.7640631401062,-0.0018013088857287598,0.008909951576570435,-0.001795230220582428,30.30000114440918,50835,,,,-0.083740234375,0.08613280951976776,10.161279678344727,-0.035686373710632324,0.0010652649216353893,-0.007989486679434776,39.02411651611328,,,,,,,,,,,,,,,,2779096485
-0.0601446662902832,0.004704892730712891,9.85168402404785,-0.0012690761455340577,0.007402535830917664,-0.0008856808197383118,30.200000762939453,50836,17.850000381469727,-20.100000381469727,-71.0999984741211,-0.08613280951976776,0.107666015625,10.070361137390137,-0.0391484834253788,0.006924221757799387,-0.011185280978679657,39.02411651611328,,,,,,,,,,,,,,,,2779096485
-0.057429837799072264,-0.0023096603393554685,9.859476202392578,-0.0007365038523027039,0.007603677728766327,-0.00043449472886047366,30.200000762939453,50837,,,,-0.12441406399011612,0.08613280951976776,10.170849800109863,-0.03542005643248558,0.0026631623040884733,-0.010120016522705555,39.11823654174805,,,,,,,,,,,,,,,,2779096485
-0.07445370407104492,0.009212808990478515,9.792320123291015,-0.00169808476258667,0.008659740935974275,-0.002698980588192749,30.200000762939453,50838,,,,-0.131591796875,0.06459961086511612,10.089502334594727,-0.03621900454163551,0.004793691914528608,-0.011185280978679657,39.02411651611328,,,,,,,,,,,,,,,,2779096485
-0.06326858825683594,0.0029712455749511717,9.837684301757813,-0.0035289414204067995,0.007964176527247468,0.00011733221891983032,30.200000762939453,50839,,,,-0.11245117336511612,0.18662109971046448,10.122998237609863,-0.03648532181978226,0.004261059686541557,-0.011451597325503826,39.02411651611328,,,,,,,,,,,,,,,,2779096485
-0.0630516487121582,-0.008381238555908202,9.843052387237549,0.0006575943897459412,0.008311712389211731,-0.0017097360922756959,30.200000762939453,50840,18.450000762939453,-19.5,-71.55000305175781,-0.01674804650247097,0.08852539211511612,10.060791015625,-0.03808322176337242,0.0037284272257238626,-0.010918965563178062,39.11823654174805,,,,,,,,,,,,,,,,2779096485
-0.07235257186889649,0.007602940368652344,9.821304412841796,-0.002216136170074158,0.006776320136499939,-0.0026905649992059327,30.200000762939453,50841,,,,-0.02392578125,0.16748046875,10.130175590515137,-0.03542005643248558,0.002929478418081999,-0.007456854451447725,39.02411651611328,,,,,,,,,,,,,,,,2779096485
-0.06784577713012695,0.006480484771728515,9.816086499023438,-0.0014315755762312316,0.006955650745170746,-0.00278448803230484,30.200000762939453,50842,,,,-0.02871093712747097,0.10527344048023224,10.115819931030273,-0.03861585259437561,0.004261059686541557,-0.015446340665221214,39.02411651611328,,,,,,,,,,,,,,,,2779096485
-0.05580703430175781,-0.00419527359008789,9.849239594268798,-0.0011731490837286378,0.008036408113416748,-0.0022457904686083983,30.200000762939453,50843,18.299999237060547,-19.950000762939453,-72.0,-0.06938476860523224,0.13398437201976776,10.101465225219727,-0.03728426992893219,0.006391589529812336,-0.010918965563178062,39.02411651611328,,,,,,,,,,,,,,,,2779096485
-0.06838541564941406,0.0021630401611328126,9.82247961730957,-0.0003874832780409241,0.0077704515329837034,-0.001975899067691803,30.200000762939453,50844,,,,-0.083740234375,0.15312500298023224,10.137353897094727,-0.036751639097929,0.0037284272257238626,-0.012516862712800503,39.02411651611328,,,,,,,,,,,,,,,,2779096485
-0.07104588775634765,0.008933026885986328,9.822824485015868,-0.0021282451968028257,0.006340227510996399,-0.0012403006901535035,30.200000762939453,50845,,,,-0.09809570014476776,0.107666015625,10.048828125,-0.03728426992893219,0.004527375567704439,-0.010652649216353893,39.02411651611328,,,,,,,,,,,,,,,,2779096485
-0.06649254989624023,0.006087017822265625,9.84636150970459,-0.0011880761015359497,0.00826470759629486,-0.003968649287065277,30.200000762939453,50846,,,,-0.11484374850988388,0.13637694716453552,10.151708602905273,-0.036751639097929,0.0055926404893398285,-0.012783179059624672,39.02411651611328,,,,,,,,,,,,,,,,2779096485
-0.06789374084472656,0.008258394622802733,9.829385195922852,-0.002155276281681366,0.007440812113421784,-0.003782181406722107,30.200000762939453,50847,18.450000762939453,-20.399999618530273,-71.0999984741211,-0.07177734375,0.07656250149011612,10.058398246765137,-0.036751639097929,0.0037284272257238626,-0.011451597325503826,39.02411651611328,,,,,,,,,,,,,,,,2779096485
-0.07120843353271485,0.01044012680053711,9.819761499023437,-0.0006280799071679687,0.00639080759765213,-0.0020671655976216125,30.100000381469727,50848,,,,-0.08613280951976776,0.12441406399011612,10.118212699890137,-0.03728426992893219,0.001597897382453084,-0.008788435719907284,39.02411651611328,,,,,,,,,,,,,,,,2779096485
-0.0668044822692871,0.004634274291992187,9.836712017822265,-0.0008973188336219788,0.007195588241932525,-0.0012544354175419617,30.0,50849,,,,-0.07895507663488388,0.11005859076976776,10.14453125,-0.03861585259437561,0.0034621108788996935,-0.013582127168774605,39.11823654174805,,,,,,,,,,,,,,,,2779096485
-0.07222053146362305,0.0069145133972167965,9.81864461364746,-0.0008094145445452881,0.0073507373480715945,-0.004153346165295715,30.0,50850,,,,-0.12441406399011612,0.16748046875,10.111035346984863,-0.034354791045188904,0.002396845957264304,-0.009321067482233047,38.93000030517578,,,,,,,,,,,,,,,,2779096485
-0.0713396141052246,0.009653379821777344,9.826226880645752,-0.0015560117773100281,0.006156482712849121,-0.0041433659691792295,30.200000762939453,50851,17.399999618530273,-20.399999618530273,-70.94999694824219,-0.04306640475988388,0.083740234375,10.070361137390137,-0.03648532181978226,0.0055926404893398285,-0.008788435719907284,39.02411651611328,,,,,,,,,,,,,,,,2779096485
-0.06857345733642578,0.012189662170410155,9.829499890136718,-0.0018049840480078125,0.006652383278122101,-0.0016070778908613586,30.200000762939453,50852,,,,-0.06699218600988388,0.06938476860523224,10.151708602905273,-0.03648532181978226,0.004261059686541557,-0.008522119373083115,39.02411651611328,,,,,,,,,,,,,,,,2779096485
-0.06712916259765625,0.015372501373291015,9.824286088562012,-0.0008505537252015686,0.008446568207983856,-0.0016166985602331543,30.200000762939453,50853,,,,-0.09331054985523224,0.08134765923023224,10.065576553344727,-0.03648532181978226,0.007190538104623556,-0.008522119373083115,39.11823654174805,,,,,,,,,,,,,,,,2779096485
-0.07315726318359375,0.015411530303955078,9.827696334838867,0.00016957678124542236,0.007311761985786133,-0.002434069298480377,30.100000381469727,50854,,,,-0.09091796725988388,0.22011718153953552,10.163671493530273,-0.03621900454163551,0.0050600082613527775,-0.012250546365976334,39.02411651611328,,,,,,,,,,,,,,,,2779096485
-0.0678201316833496,0.017594982147216796,9.825956818389892,-0.0009355152212939453,0.00822010630624527,-8.376973151275635e-05,29.899999618530273,50855,18.0,-20.25,-70.6500015258789,-0.107666015625,0.059814453125,10.084716796875,-0.03781690448522568,0.006924221757799387,-0.011451597325503826,39.02411651611328,,,,,,,,,,,,,,,,2779096485
-0.07622596893310547,0.014554949951171875,9.823881144714354,-0.0005010271503361511,0.00738356080828125,-0.002618599729143829,29.899999618530273,50856,,,,-0.04306640475988388,0.06459961086511612,10.166064262390137,-0.035686373710632324,0.0037284272257238626,-0.011984230019152164,39.02411651611328,,,,,,,,,,,,,,,,2779096485
-0.07455045394897461,0.01642874984741211,9.82608063430786,-0.0005650162529882813,0.007712181568733215,-0.0007153849850035095,30.0,50857,,,,-0.083740234375,0.131591796875,10.113428115844727,-0.03728426992893219,0.0055926404893398285,-0.010386332869529724,39.02411651611328,,,,,,,,,,,,,,,,2779096485
-0.07368807907104492,0.015923915863037107,9.821793022155761,-0.000982153829563446,0.006470615877070617,-0.002157233705069122,30.0,50858,,,,-0.04067382961511612,0.17226561903953552,10.091894149780273,-0.037017956376075745,0.002396845957264304,-0.010386332869529724,38.93000030517578,,,,,,,,,,,,,,,,2779096485
-0.07675360717773437,0.01878629913330078,9.832782021331786,0.000761930382635498,0.00665011959121109,-0.0023450531396562195,30.0,50859,18.450000762939453,-20.100000381469727,-71.8499984741211,-0.03349609300494194,0.10527344048023224,10.075146675109863,-0.035686373710632324,0.0050600082613527775,-0.009853700175881386,39.02411651611328,,,,,,,,,,,,,,,,2779096485
-0.0776859275817871,0.018274436950683592,9.823985109710692,-0.0010700181712240602,0.00845263355732483,-0.002072864762315216,30.100000381469727,50860,,,,-0.07895507663488388,0.107666015625,10.084716796875,-0.03648532181978226,0.004793691914528608,-0.013049494475126266,39.02411651611328,,,,,,,,,,,,,,,,2779096485
-0.07852030181884766,0.01505301742553711,9.830647953796387,-0.0010463493271986389,0.00688813961200119,-0.00034489267460052493,30.100000381469727,50861,,,,-0.09809570014476776,0.09809570014476776,10.027295112609863,-0.03808322176337242,0.0050600082613527775,-0.012516862712800503,39.02411651611328,,,,,,,,,,,,,,,,2779096485
-0.08016987228393554,0.016033451080322263,9.82260601272583,-0.0010440124033581544,0.006417825366725311,-0.002969624332112122,30.100000381469727,50862,,,,-0.11723633110523224,0.10288085788488388,9.979443550109863,-0.036751639097929,0.006125273182988167,-0.007456854451447725,39.02411651611328,,,,,,,,,,,,,,,,2779096485
-0.07569324645996094,0.018084974670410155,9.823825255584717,-0.0010451375889109803,0.006778756928880615,-0.0026991936410784914,30.100000381469727,50863,18.75,-19.799999237060547,-70.6500015258789,-0.05024414137005806,0.07895507663488388,10.046435356140137,-0.04048006609082222,0.0034621108788996935,-0.010652649216353893,39.02411651611328,,,,,,,,,,,,,,,,2779096485
-0.07569130249023437,0.01770926513671875,9.834216184997558,-0.0004998553594645691,0.007734152647575378,-0.0010720221999305725,30.200000762939453,50864,,,,-0.05024414137005806,0.16748046875,10.142138481140137,-0.040213748812675476,0.005326324608176947,-0.007723170332610607,39.11823654174805,,,,,,,,,,,,,,,,2779096485
-0.08097269439697265,0.014676971435546875,9.827288213348389,-0.002680558171478729,0.007817915721185455,-0.0015175623893362428,30.200000762939453,50865,,,,-0.05742187425494194,0.15073242783546448,10.108642578125,-0.037017956376075745,0.0037284272257238626,-0.009587383829057217,39.02411651611328,,,,,,,,,,,,,,,,2779096485
-0.0771366813659668,0.015240274047851563,9.827935592651366,-0.0011069096099708558,0.006393930154008789,-0.00043125233025558473,30.200000762939453,50866,,,,-0.095703125,0.11484374850988388,10.094286918640137,-0.03621900454163551,0.0055926404893398285,-0.007723170332610607,39.02411651611328,,,,,,,,,,,,,,,,2779096485
-0.07438633804321289,0.00987846908569336,9.825667690277099,-0.000935255563089447,0.007549855243505707,-0.0016132497666452026,30.200000762939453,50867,18.0,-21.299999237060547,-71.4000015258789,-0.11005859076976776,0.11723633110523224,10.032079696655273,-0.037017956376075745,0.002396845957264304,-0.011185280978679657,39.02411651611328,,,,,,,,,,,,,,,,2779096485
-0.07270947723388671,0.012237177276611328,9.828708395385743,-0.0013708754775027467,0.007454460813914643,-0.0022453577049342346,30.200000762939453,50868,,,,-0.09331054985523224,0.11005859076976776,10.0966796875,-0.03595269098877907,0.0005326324608176947,-0.007723170332610607,39.02411651611328,,,,,,,,,,,,,,,,2779096485
-0.07328358383178711,0.011842327117919922,9.828915465545654,-0.0009362941959074402,0.007993624430798645,-0.0021581924430549623,30.200000762939453,50869,,,,-0.095703125,0.11962890625,10.125391006469727,-0.03941480070352554,0.007723170332610607,-0.008522119373083115,39.02411651611328,,,,,,,,,,,,,,,,2779096485
-0.07141542892456054,0.009204958343505858,9.832169371795654,-0.002268054495168457,0.007154755324799499,-0.0005227319130711365,30.100000381469727,50870,,,,-0.07656250149011612,0.107666015625,10.0966796875,-0.036751639097929,0.004261059686541557,-0.010918965563178062,39.02411651611328,,,,,,,,,,,,,,,,2779096485
-0.07120510635375976,0.011405793762207031,9.830197700500488,0.0005821670102905273,0.008364163346520386,-0.0010825483440667725,30.0,50871,18.299999237060547,-20.700000762939453,-71.25,-0.02631836012005806,0.11005859076976776,10.111035346984863,-0.037550587207078934,0.004527375567704439,-0.011451597325503826,39.02411651611328,,,,,,,,,,,,,,,,2779096485
-0.06929433364868164,0.006713237762451172,9.828916512298584,-0.0002868823685545349,0.0071992101409901425,-0.0008943094616108703,30.0,50872,,,,-0.0478515625,0.05742187425494194,10.077539443969727,-0.03728426992893219,0.0037284272257238626,-0.010120016522705555,39.02411651611328,,,,,,,,,,,,,,,,2779096485
-0.06508877944946288,0.005132117462158203,9.824409680175782,-0.0012493554377975464,0.008357838338974915,-0.001619548142579956,30.0,50873,,,,-0.04545898362994194,0.05263672024011612,10.101465225219727,-0.037550587207078934,0.004793691914528608,-0.007723170332610607,38.93000030517578,2024,5,21,15,27,11,0,16.588321685791016,49.223960876464844,315435,273066,7319531,525769,0,283,2779096485
-0.06630891952514648,0.005420198822021484,9.82985189819336,-0.002381371998772583,0.007810418922768402,-0.002609897850341797,30.0,50874,,,,-0.06699218600988388,0.16508789360523224,10.132568359375,-0.03728426992893219,0.0037284272257238626,-0.008522119373083115,38.93000030517578,,,,,,,,,,,,,,,,2779096485
-0.0667923698425293,0.004718874359130859,9.830472846984863,-0.0005452356241276551,0.006116934770933228,-0.0016141286097988892,30.0,50875,18.149999618530273,-20.25,-71.55000305175781,-0.083740234375,0.11484374850988388,10.0966796875,-0.037017956376075745,0.002929478418081999,-0.013049494475126266,39.02411651611328,,,,,,,,,,,,,,,,2779096485
-0.06420513305664062,0.0065555892944335935,9.825813824462891,-0.0009920541308477784,0.008252843213720093,-0.002435613931902008,30.0,50876,,,,-0.035888671875,0.12441406399011612,10.003369331359863,-0.03808322176337242,0.003994743339717388,-0.008255803026258945,38.93000030517578,,,,,,,,,,,,,,,,2779096485
-0.06490813980102539,-0.0030940895080566405,9.824900569915771,0.0002098104871372986,0.007701495634932709,5.552690834655762e-06,29.899999618530273,50877,,,,-0.11005859076976776,0.12919922173023224,10.132568359375,-0.03648532181978226,0.005326324608176947,-0.008255803026258945,39.02411651611328,,,,,,,,,,,,,,,,2779096485
-0.06500485229492187,0.001159241485595703,9.827927517700195,-0.0017117134893714905,0.008681379119682465,-0.0005345962956459046,29.899999618530273,50878,,,,-0.07656250149011612,0.16030272841453552,10.170849800109863,-0.0391484834253788,0.003195794764906168,-0.011984230019152164,38.93000030517578,,,,,,,,,,,,,,,,2779096485
-0.06339546966552734,0.0031602218627929685,9.828975504302978,-0.0013557620384204102,0.006424969296300354,-0.0023392008432009887,29.899999618530273,50879,18.600000381469727,-20.25,-71.55000305175781,-0.05263672024011612,0.06938476860523224,10.187597274780273,-0.03861585259437561,0.0026631623040884733,-0.010386332869529724,39.02411651611328,,,,,,,,,,,,,,,,2779096485
-0.06501176834106445,-0.0027474647521972657,9.829892086029053,-0.0006535064375007629,0.008582948686469574,-0.0037973281353178407,30.0,50880,,,,-0.014355468563735485,0.07416991889476776,10.149316787719727,-0.03728426992893219,0.006657905410975218,-0.007456854451447725,39.11823654174805,,,,,,,,,,,,,,,,2779096485
-0.06152910919189453,0.00058917236328125,9.83055965270996,-0.001967936216087189,0.006879517628031311,-0.001523587791261139,30.0,50881,,,,-0.05024414137005806,0.095703125,10.099072456359863,-0.037017956376075745,0.004793691914528608,-0.011984230019152164,39.11823654174805,,,,,,,,,,,,,,,,2779096485
-0.06340552597045898,0.0003274467468261719,9.828958382415772,-4.838297877151489e-05,0.006700539888202514,-0.00171076140928833,30.0,50882,,,,-0.131591796875,0.07895507663488388,10.099072456359863,-0.03621900454163551,0.003994743339717388,-0.008255803026258945,39.11823654174805,,,,,,,,,,,,,,,,2779096485
-0.0699375259399414,0.002140086364746094,9.830400695800781,-0.0004429902126794434,0.00785565271357254,-0.0016187491942584228,30.200000762939453,50883,18.0,-20.700000762939453,-70.80000305175781,-0.083740234375,0.107666015625,10.125391006469727,-0.0391484834253788,0.007456854451447725,-0.008522119373083115,38.93000030517578,,,,,,,,,,,,,,,,2779096485
-0.06772932586669922,0.005339150238037109,9.828214514923095,2.1371867601013186e-06,0.006430215723611755,-0.0016148343474829102,30.200000762939453,50884,,,,-0.059814453125,0.09331054985523224,10.103857040405273,-0.03355584293603897,0.0037284272257238626,-0.009321067482233047,39.02411651611328,,,,,,,,,,,,,,,,2779096485
-0.06691783065795898,0.0033208610534667966,9.829566994476318,-0.001832860686526642,0.0073402444934487915,0.00019963721184310912,30.200000762939453,50885,,,,-0.05742187425494194,0.12919922173023224,10.142138481140137,-0.037017956376075745,0.0050600082613527775,-0.008522119373083115,39.02411651611328,,,,,,,,,,,,,,,,2779096485
-0.0685977195739746,0.006616824340820312,9.829535591888428,-0.00018718693383255004,0.006319421565123139,-0.0009812150652856446,30.200000762939453,50886,,,,-0.12441406399011612,0.13637694716453552,10.106249809265137,-0.03728426992893219,0.006391589529812336,-0.012783179059624672,39.02411651611328,,,,,,,,,,,,,,,,2779096485
-0.06638006134033203,0.007515349578857421,9.823654859161376,-0.0003737746564239502,0.00719230589591156,-0.001709063644105072,30.100000381469727,50887,17.549999237060547,-19.950000762939453,-70.3499984741211,-0.0478515625,0.07895507663488388,10.199560165405273,-0.03834953531622887,0.005326324608176947,-0.010120016522705555,39.02411651611328,,,,,,,,,,,,,,,,2779096485
-0.06865559005737304,0.007041058349609375,9.830253926086426,-0.0013349827241578675,0.007986966528119201,-0.0030669761850909425,30.100000381469727,50888,,,,-0.011962890625,0.11005859076976776,10.108642578125,-0.037017956376075745,0.002396845957264304,-0.009054751135408878,39.02411651611328,,,,,,,,,,,,,,,,2779096485
-0.0695701156616211,0.013715678405761718,9.830273291015624,-0.000745831573956604,0.0066079218040287786,-0.001979700730121765,30.0,50889,,,,-0.06938476860523224,0.15073242783546448,10.077539443969727,-0.034354791045188904,0.006391589529812336,-0.009853700175881386,39.02411651611328,,,,,,,,,,,,,,,,2779096485
-0.06827188034057617,0.009431767272949218,9.826387744140625,-0.0011264305806269837,0.008733157628820496,9.484182366867066e-05,29.899999618530273,50890,,,,-0.07416991889476776,0.12441406399011612,10.046435356140137,-0.03595269098877907,0.002396845957264304,-0.007989486679434776,39.02411651611328,,,,,,,,,,,,,,,,2779096485
-0.07119684448242188,0.01139764404296875,9.824683742523193,-0.0015590078335157775,0.007730510774809723,-0.0018019813338993836,29.899999618530273,50891,18.299999237060547,-20.399999618530273,-71.0999984741211,-0.10048828274011612,0.16269531846046448,10.108642578125,-0.03968111798167229,0.005326324608176947,-0.013582127168774605,39.02411651611328,,,,,,,,,,,,,,,,2779096485
-0.06945501022338867,0.015313771057128906,9.826449726867676,-0.001880617822446289,0.006708622582055359,-0.0005270861814234924,30.0,50892,,,,-0.05742187425494194,0.083740234375,10.063183784484863,-0.03621900454163551,0.005858956836163998,-0.009587383829057217,39.02411651611328,,,,,,,,,,,,,,,,2779096485
-0.07630563430786133,0.013110655212402343,9.826797660064697,8.550078620941162e-05,0.007776763224723816,-0.001438726163708954,30.100000381469727,50893,,,,-0.04067382961511612,0.19858399033546448,10.158886909484863,-0.03488742560148239,0.003195794764906168,-0.010120016522705555,39.02411651611328,,,,,,,,,,,,,,,,2779096485
-0.0740264419555664,0.015162814331054687,9.829805280303955,-0.0005251687054518128,0.008031514554947357,-0.003067655291164246,30.100000381469727,50894,,,,-0.011962890625,0.13637694716453552,10.118212699890137,-0.03781690448522568,0.0034621108788996935,-0.007723170332610607,39.11823654174805,,,,,,,,,,,,,,,,2779096485
-0.0736460594177246,0.014036620330810547,9.837194645690918,-8.269780918136597e-05,0.007337960832829743,-0.0013455821052235414,30.200000762939453,50895,19.049999237060547,-20.100000381469727,-71.8499984741211,-0.07416991889476776,0.12441406399011612,10.115819931030273,-0.03994743525981903,0.005858956836163998,-0.0050600082613527775,39.02411651611328,,,,,,,,,,,,,,,,2779096485
-0.07549219512939453,0.01992647476196289,9.827813720703125,-0.0011205849420744323,0.007888382963144683,-0.001886396881972046,30.200000762939453,50896,,,,-0.10288085788488388,0.16030272841453552,10.108642578125,-0.04127901419997215,0.002929478418081999,-0.009587383829057217,38.93000030517578,,,,,,,,,,,,,,,,2779096485
-0.07849989013671875,0.013532571411132812,9.83013994216919,-0.0005489906812388611,0.007461125374496765,-0.0017093965392390442,30.200000762939453,50897,,,,-0.07656250149011612,0.10288085788488388,10.158886909484863,-0.037550587207078934,0.004527375567704439,-0.013049494475126266,39.02411651611328,,,,,,,,,,,,,,,,2779096485
-0.07688146057128906,0.016387178802490233,9.822962693786621,-0.0020345618482003783,0.008529578938591156,-0.002432504691350708,30.200000762939453,50898,18.149999618530273,-19.5,-70.05000305175781,-0.12680664658546448,0.09809570014476776,10.091894149780273,-0.035686373710632324,0.004793691914528608,-0.007456854451447725,39.02411651611328,,,,,,,,,,,,,,,,2779096485
-0.07645210494995117,0.016070760345458984,9.825693260955811,-0.001940998341846161,0.006118619220311127,-0.0012470185139570617,30.200000762939453,50899,,,,-0.08852539211511612,0.15312500298023224,10.185205459594727,-0.037017956376075745,0.003994743339717388,-0.009321067482233047,38.93000030517578,,,,,,,,,,,,,,,,2779096485
-0.07489771423339843,0.014462648773193358,9.822648892211914,-0.0011573765122810365,0.006570724101758728,-0.0008890763501048279,30.200000762939453,50900,,,,-0.12919922173023224,0.155517578125,10.132568359375,-0.03621900454163551,0.004261059686541557,-0.010918965563178062,39.02411651611328,,,,,,,,,,,,,,,,2779096485
-0.07769919891357421,0.014885873413085938,9.83400870361328,-0.0006352371525483704,0.007103143263228455,-0.0016172777977662659,30.200000762939453,50901,,,,-0.01674804650247097,0.095703125,10.142138481140137,-0.03941480070352554,0.007989486679434776,-0.013049494475126266,39.02411651611328,,,,,,,,,,,,,,,,2779096485
-0.0752083381652832,0.014737832641601563,9.830920259094238,-0.001459598688609009,0.00840347160393982,0.0004607934444442749,30.100000381469727,50902,18.600000381469727,-19.950000762939453,-70.19999694824219,-0.10048828274011612,0.14833983778953552,10.044042587280273,-0.03355584293603897,0.004261059686541557,-0.008255803026258945,39.02411651611328,,,,,,,,,,,,,,,,2779096485
-0.07661334228515625,0.016192557525634765,9.834234503173828,-0.0010335661540541077,0.006843478400827484,-0.000713920246414032,30.0,50903,,,,-0.05024414137005806,0.16269531846046448,10.041650772094727,-0.0391484834253788,0.006924221757799387,-0.010652649216353893,39.02411651611328,,,,,,,,,,,,,,,,2779096485
-0.07510411148071289,0.015176945495605469,9.835621002197266,-0.0006882873210981751,0.008354449466511078,-0.002350585856782837,30.0,50904,,,,-0.12680664658546448,0.12680664658546448,10.111035346984863,-0.037017956376075745,0.0050600082613527775,-0.007723170332610607,39.02411651611328,,,,,,,,,,,,,,,,2779096485
-0.0722078956604004,0.012999026489257812,9.829370877838134,-0.00046096654991394044,0.0063974188950128175,-0.002800972999339142,30.0,50905,,,,-0.095703125,0.06938476860523224,10.089502334594727,-0.037017956376075745,0.006391589529812336,-0.009054751135408878,39.02411651611328,,,,,,,,,,,,,,,,2779096485
-0.0734140167236328,0.008296974945068359,9.825455573272706,4.821653120452881e-05,0.0076475067021051025,-0.001359004437025299,29.899999618530273,50906,17.700000762939453,-20.100000381469727,-70.6500015258789,-0.05742187425494194,0.04545898362994194,10.02490234375,-0.03861585259437561,0.0021305298432707787,-0.010386332869529724,39.02411651611328,,,,,,,,,,,,,,,,2779096485
-0.07670123214721679,0.006283321380615234,9.836789402770997,-0.00016160727173812866,0.007188570812508392,-0.0024388896200202943,29.899999618530273,50907,,,,-0.06699218600988388,0.13876953721046448,10.149316787719727,-0.03595269098877907,0.005326324608176947,-0.009321067482233047,39.02411651611328,,,,,,,,,,,,,,,,2779096485
-0.07085306091308594,0.009835626983642577,9.850549194335937,0.0007275023678800965,0.006499144990052033,-0.0023476164321878054,30.0,50908,,,,-0.04306640475988388,0.12680664658546448,10.106249809265137,-0.037550587207078934,0.0034621108788996935,-0.009587383829057217,39.02411651611328,,,,,,,,,,,,,,,,2779096485
-0.07214909057617187,0.0005512275695800781,9.849649098968506,-0.0011320099030723571,0.006518026802050934,-0.001701766582768402,30.200000762939453,50909,,,,-0.18422850966453552,0.12441406399011612,10.082324028015137,-0.03861585259437561,0.0034621108788996935,-0.008788435719907284,39.11823654174805,,,,,,,,,,,,,,,,2779096485
-0.06823322525024414,0.004992488098144531,9.831719716644287,0.0006984605963923646,0.0069681143389866635,-0.001709709460664978,30.200000762939453,50910,17.549999237060547,-20.700000762939453,-70.6500015258789,-0.13398437201976776,0.10048828274011612,10.075146675109863,-0.040213748812675476,0.007190538104623556,-0.009054751135408878,39.02411651611328,,,,,,,,,,,,,,,,2779096485
-0.06839696731567382,0.004956562042236328,9.817310639190673,-0.0005295629212202454,0.007588850579499207,-0.0013458217897200013,30.200000762939453,50911,,,,-0.095703125,0.107666015625,10.020116806030273,-0.035153742879629135,0.004527375567704439,-0.005326324608176947,39.02411651611328,,,,,,,,,,,,,,,,2779096485
-0.07191200103759765,-0.0020356727600097657,9.800940432739257,-0.0013326391424147033,0.0070941284630004885,-0.002611023035894623,30.100000381469727,50912,,,,-0.10048828274011612,0.13398437201976776,10.079931259155273,-0.03595269098877907,0.006924221757799387,-0.012250546365976334,39.02411651611328,,,,,,,,,,,,,,,,2779096485
-0.07273291702270508,0.0046633964538574215,9.770230683135987,-0.0012442421685397338,0.006478705228826142,-0.0011601395418930054,30.100000381469727,50913,,,,-0.08134765923023224,0.12441406399011612,10.170849800109863,-0.0391484834253788,0.003994743339717388,-0.011185280978679657,39.02411651611328,,,,,,,,,,,,,,,,2779096485
-0.0610418830871582,0.007383010101318359,9.853709565734864,-2.6411899929351808e-05,0.007984443183003693,-0.003524340809655304,30.100000381469727,50914,18.149999618530273,-19.799999237060547,-70.5,-0.06459961086511612,0.14594726264476776,10.091894149780273,-0.035686373710632324,0.0034621108788996935,-0.009321067482233047,39.02411651611328,,,,,,,,,,,,,,,,2779096485
-0.07752581176757813,-0.0031036598205566404,9.862357539367675,0.003045617633295288,0.009752229528741455,-0.001455950157940674,30.200000762939453,50915,,,,-0.0023925781715661287,0.09809570014476776,10.142138481140137,-0.03462110832333565,0.004261059686541557,-0.009853700175881386,39.02411651611328,,,,,,,,,,,,,,,,2779096485
-0.09311985092163086,0.013959534454345703,9.802778343963622,-0.0001782253968260193,0.00857893397115387,-0.001984008393155365,30.200000762939453,50916,,,,-0.05263672024011612,0.10048828274011612,10.094286918640137,-0.036751639097929,0.0026631623040884733,-0.0055926404893398285,39.11823654174805,,,,,,,,,,,,,,,,2779096485
-0.034909957885742186,-0.0016189903259277343,9.906929026794433,-0.001446595804676056,0.007681688374461365,-0.0021621672109545897,30.200000762939453,50917,,,,-0.10048828274011612,0.08134765923023224,10.063183784484863,-0.037550587207078934,0.005858956836163998,-0.011717913672327995,39.02411651611328,,,,,,,,,,,,,,,,2779096485
-0.0642636016845703,0.0011390167236328124,9.824844269561767,0.0014005031444262695,0.006541136382251282,-0.0028957748755917357,30.100000381469727,50918,17.700000762939453,-20.399999618530273,-71.69999694824219,-0.04306640475988388,0.11005859076976776,9.996191024780273,-0.03488742560148239,0.004261059686541557,-0.012783179059624672,39.02411651611328,,,,,,,,,,,,,,,,2779096485
-0.07582237091064453,-0.007043899536132812,9.82432272491455,0.0002498244822407532,0.006721152754898071,0.00045708499265182496,30.0,50919,,,,-0.01674804650247097,0.155517578125,10.087109565734863,-0.033822160214185715,0.006125273182988167,-0.011451597325503826,39.11823654174805,,,,,,,,,,,,,,,,2779096485
-0.06330197219848632,0.003897958374023437,9.851544170379638,-0.002187260846153412,0.005174781620667877,-0.001883680457678833,30.0,50920,,,,-0.09091796725988388,0.08134765923023224,10.12060546875,-0.035686373710632324,0.006924221757799387,-0.006924221757799387,39.11823654174805,,,,,,,,,,,,,,,,2779096485
-0.128842724609375,0.09204853668212891,9.478345722198487,0.00016614796136550904,0.0006519218566630555,-0.00368861124246521,30.0,50921,,,,-0.10288085788488388,0.09091796725988388,10.108642578125,-0.035686373710632324,0.006657905410975218,-0.010386332869529724,39.02411651611328,,,,,,,,,,,,,,,,2779096485
-0.07025401916503907,-0.029618846130371093,9.796456255340576,-0.0017584053608624267,-0.0012340422616348267,-0.001683790245533905,29.899999618530273,50922,18.899999618530273,-19.799999237060547,-70.80000305175781,-0.05263672024011612,0.13637694716453552,10.053613662719727,-0.03648532181978226,0.0050600082613527775,-0.010386332869529724,38.93000030517578,,,,,,,,,,,,,,,,2779096485
-0.10708719863891601,0.021383592224121093,9.738324868774415,-0.002261756119233704,-0.007896984973406525,-0.004918951710210266,29.899999618530273,50923,,,,-0.04545898362994194,0.12441406399011612,10.036865234375,-0.03648532181978226,0.0034621108788996935,-0.012783179059624672,39.11823654174805,,,,,,,,,,,,,,,,2779096485
-0.2521646873474121,0.06669999389648437,9.108762609100342,0.0026873958375305176,-0.027408235091622466,-0.0033271470480955505,30.0,50924,,,,-0.08613280951976776,0.13876953721046448,10.005762100219727,-0.03648532181978226,0.004527375567704439,-0.005858956836163998,38.93000030517578,,,,,,,,,,,,,,,,2779096485
-0.008125419616699218,-0.03075554504394531,9.991764239501952,-0.007275935811468048,-0.046298089836960606,-0.0017758024605638123,30.0,50925,,,,0.0,0.17705078423023224,10.125391006469727,-0.03808322176337242,0.005858956836163998,-0.011984230019152164,39.02411651611328,,,,,,,,,,,,,,,,2779096485
0.21691416091918944,0.0137537353515625,10.430673275756835,-0.003584814539692688,-0.02487920412722519,-0.003584561539390869,30.0,50926,17.100000381469727,-20.399999618530273,-70.80000305175781,-0.18901367485523224,0.21293945610523224,9.807177543640137,-0.037550587207078934,-0.006924221757799387,-0.012783179059624672,39.02411651611328,,,,,,,,,,,,,,,,2779096485
-0.09744462280273437,0.038251753997802736,9.835495616149903,0.0032725455882214355,-0.010978761676153869,-0.005196346567446594,30.100000381469727,50927,,,,-0.01914062537252903,0.09809570014476776,10.046435356140137,-0.037017956376075745,-0.0005326324608176947,-0.008788435719907284,39.02411651611328,,,,,,,,,,,,,,,,2779096485
-0.04657415008544922,0.11043650894165039,9.663519380950927,-0.003915885408330689,-0.013580097463649903,-0.003165692908119049,30.200000762939453,50928,,,,-0.12919922173023224,0.11723633110523224,10.101465225219727,-0.04101269692182541,-0.012250546365976334,-0.011451597325503826,39.02411651611328,,,,,,,,,,,,,,,,2779096485
0.05825595016479492,0.010820098114013672,10.021280017852783,-0.00739576474389267,-0.01630599595237564,-0.007038288633227997,30.200000762939453,50929,,,,-0.18901367485523224,0.14116211235523224,9.725830078125,-0.043409544974565506,-0.03488742560148239,-0.014114759862422943,39.02411651611328,,,,,,,,,,,,,,,,2779096485
0.588858935546875,0.711673821258545,9.737780033874511,-0.000694638960254364,-0.009818502292012634,-0.014782334924185028,30.200000762939453,50930,18.149999618530273,-20.549999237060547,-70.80000305175781,-0.08852539211511612,0.011962890625,10.197168350219727,-0.04607270658016205,-0.03968111798167229,-0.006924221757799387,39.11823654174805,,,,,,,,,,,,,,,,2779096485
2.2836116310119627,2.121708448791504,9.748795874786376,1.4793859753723144e-05,-0.007352774666291504,-0.06306426004883132,30.200000762939453,50931,,,,0.07177734375,0.16748046875,10.347900390625,-0.03781690448522568,-0.012516862712800503,-0.009587383829057217,39.02411651611328,,,,,,,,,,,,,,,,2779096485
3.3033241287231445,2.75819090423584,10.040830932617187,-0.005609955455601654,-0.01123734795832077,-0.15151245316911377,30.200000762939453,50932,,,,-0.10527344048023224,0.16748046875,10.132568359375,-0.033822160214185715,-0.009853700175881386,-0.014381076209247112,39.11823654174805,,,,,,,,,,,,,,,,2779096485
3.5870615013122555,3.5220720886230468,9.760061814880372,0.007399806090819092,-0.0003408380118687439,-0.26525421164777924,30.200000762939453,50933,,,,-0.009570312686264515,0.20097656548023224,10.079931259155273,-0.043942175805568695,-0.013315810821950436,-0.014381076209247112,39.02411651611328,,,,,,,,,,,,,,,,2779096485
3.290696774291992,4.13713999786377,10.047816438293456,0.005618104728481293,-0.001960592549431763,-0.3835193824963719,30.200000762939453,50934,18.149999618530273,-19.950000762939453,-70.19999694824219,-0.02871093712747097,0.10048828274011612,10.16845703125,-0.04048006609082222,-0.014114759862422943,-0.017576871439814568,39.02411651611328,,,,,,,,,,,,,,,,2779096485
2.8661940490722655,5.678247120666504,9.809115161895752,0.014965267458205414,0.01009665615015442,-0.5081202068768202,30.200000762939453,50935,,,,0.28471678495407104,0.669921875,10.091894149780273,-0.03834953531622887,-0.0055926404893398285,-0.026897938922047615,38.93000030517578,,,,,,,,,,,,,,,,2779096485
2.6530224784851075,7.2211352188110345,9.955230057525634,0.013807731156260071,0.007015944711835785,-0.6510159291612689,30.200000762939453,50936,,,,1.382910132408142,1.5408203601837158,10.056005477905273,-0.03542005643248558,-0.006657905410975218,-0.08309066295623779,39.02411651611328,,,,,,,,,,,,,,,,2779096485
2.039916408538818,8.026761470794677,9.766155973052978,0.014657579143777619,0.002704400120973816,-0.8008880215840268,30.100000381469727,50937,,,,2.210742235183716,2.2322754859924316,10.003369331359863,-0.03808322176337242,-0.0055926404893398285,-0.17816555500030518,39.02411651611328,,,,,,,,,,,,,,,,2779096485
1.168410929107666,8.167722117614746,9.828233169555665,0.023236606325569,0.004511441460909577,-0.9460093142866465,29.899999618530273,50938,18.0,-19.5,-71.0999984741211,2.356689453125,2.741894483566284,9.917236328125,-0.026365306228399277,0.006125273182988167,-0.28708890080451965,39.11823654174805,,,,,,,,,,,,,,,,2779096485
0.791273811340332,8.41900005569458,10.299247127532958,0.00541193611410965,0.0017250958737571717,-1.0731803687332724,29.899999618530273,50939,,,,2.22509765625,3.3328614234924316,10.364648818969727,-0.026098988950252533,0.000798948691226542,-0.40932804346084595,39.02411651611328,,,,,,,,,,,,,,,,2779096485
0.5027682548522949,8.67231549835205,9.333026396179198,-0.0019273762729640198,0.003632085648716736,-1.2042068814635105,30.100000381469727,50940,,,,1.8159668445587158,4.464550971984863,9.998583793640137,-0.011984230019152164,0.018109502270817757,-0.5313008427619934,38.93000030517578,,,,,,,,,,,,,,,,2779096485
0.5053395286560058,8.88398864212036,9.920243985748291,0.0013658088135636902,-0.007160561015935974,-1.3410204298869153,30.30000114440918,50941,,,,1.2704589366912842,6.139355659484863,10.223485946655273,-0.018109502270817757,0.011717913672327995,-0.672448456287384,39.11823654174805,,,,,,,,,,,,,,,,2779096485
0.26853418350219727,8.232835832214356,10.078055485534668,-0.006157341582294769,-0.003480638336467438,-1.4734119657982008,30.30000114440918,50942,18.299999237060547,-20.25,-70.94999694824219,0.732128918170929,6.971972465515137,10.146924018859863,-0.018109502270817757,0.005326324608176947,-0.816791832447052,39.02411651611328,,,,,,,,,,,,,,,,2779096485
0.09190617828369141,7.8335376091003415,9.978305725860595,0.006790914259173279,-0.0056982858504498295,-1.5974327004339945,30.30000114440918,50943,,,,0.107666015625,7.555761814117432,10.431640625,-0.0034621108788996935,0.002929478418081999,-0.9536783695220947,38.93000030517578,,,,,,,,,,,,,,,,2779096485
-0.49392177200317383,7.013906887054443,9.26504147567749,-0.00483183305364975,-0.005157710758197784,-1.7009111088531204,30.0,50944,,,,-0.5311523675918579,7.546191215515137,10.328760147094727,-0.028762152418494225,0.0026631623040884733,-1.084173321723938,38.93000030517578,,,,,,,,,,,,,,,,2779096485
-0.7845804618835449,5.048125969696045,12.190864067077637,0.00984892890725769,-0.005017675091141052,-1.7716029018960184,30.0,50945,,,,-0.643603503704071,7.787841796875,9.807177543640137,-0.02583267353475094,0.006924221757799387,-1.208543062210083,39.02411651611328,,,,,,,,,,,,,,,,2779096485
-1.5038700462341308,5.618974586486816,7.458934754943847,0.031368961474499205,0.012180253451588898,-1.8201900053057825,30.100000381469727,50946,19.049999237060547,-18.899999618530273,-70.94999694824219,-0.882861316204071,8.024706840515137,10.132568359375,-0.02396846003830433,-0.007723170332610607,-1.340103268623352,39.02411651611328,,,,,,,,,,,,,,,,2779096485
-1.4131478950500487,3.6724056602478026,10.560042143249511,-0.001665094854810028,0.006575817397308502,-1.8430588890084632,30.100000381469727,50947,,,,-0.995312511920929,7.845263481140137,9.993799209594727,-0.031425315886735916,0.0034621108788996935,-1.477522373199463,39.11823654174805,,,,,,,,,,,,,,,,2779096485
-1.8364569480895996,3.830175663757324,9.61210467147827,-0.0019105850424064636,0.001232890444471283,-1.8589786800001122,30.100000381469727,50948,,,,-0.8661133050918579,7.419384956359863,10.158886909484863,-0.009054751135408878,-0.003994743339717388,-1.5931036472320557,39.02411651611328,,,,,,,,,,,,,,,,2779096485
-2.024357809448242,2.834925296020508,9.628512037658691,0.00749396880841446,0.006720580175267639,-1.8579438688182572,30.100000381469727,50949,,,,-1.256103515625,6.794921875,9.945947647094727,-0.03036004863679409,-0.002929478418081999,-1.7025595903396606,39.11823654174805,,,,,,,,,,,,,,,,2779096485
-2.173322975921631,2.329275666809082,9.738533583831787,-0.04632656568672058,-0.00372640815597641,-1.8410565980145501,30.0,50950,19.049999237060547,-19.799999237060547,-71.69999694824219,-1.6652343273162842,6.098681449890137,10.233057022094727,-0.0034621108788996935,0.009321067482233047,-1.7736660242080688,39.02411651611328,,,,,,,,,,,,,,,,2779096485
-2.442292533874512,1.674880352783203,9.963563668823243,-0.007116885174358826,-0.024046407028469698,-1.809514557701996,30.0,50951,,,,-1.741796851158142,5.060302734375,9.297558784484863,-0.004527375567704439,0.009853700175881386,-1.8263967037200928,39.02411651611328,,,,,,,,,,,,,,,,2779096485
-2.147271351623535,1.4396730255126953,9.705477799224854,-0.048409257513390654,0.013554930591521606,-1.768749118412626,30.0,50952,,,,-1.6365234851837158,4.694238185882568,10.02490234375,-0.035686373710632324,0.007456854451447725,-1.8492999076843262,39.02411651611328,,,,,,,,,,,,,,,,2779096485
-1.9993598167419433,1.728205909729004,9.426147368621827,-0.0014431336952827453,0.00631916856482132,-1.7248720150953807,30.200000762939453,50953,19.049999237060547,-18.299999237060547,-70.94999694824219,-2.0049805641174316,3.8927245140075684,9.847851753234863,-0.019174767658114433,0.0021305298432707787,-1.8642135858535767,39.02411651611328,,,,,,,,,,,,,,,,2779096485
-1.9986328094482422,1.7175468620300292,10.17756505279541,-0.03447266930867264,-0.003016722335666504,-1.6932077024001186,30.200000762939453,50954,,,,-1.9643065929412842,3.6917481422424316,9.335840225219727,0.0034621108788996935,0.010386332869529724,-1.855158805847168,39.11823654174805,,,,,,,,,,,,,,,,2779096485
-2.217815807342529,2.6487140808105467,9.271913259124755,-0.018751676633128968,0.01788590960030487,-1.6724153386483243,30.200000762939453,50955,,,,-1.954736351966858,2.7562499046325684,9.855029106140137,-0.037017956376075745,0.0005326324608176947,-1.8474355936050415,39.11823654174805,,,,,,,,,,,,,,,,2779096485
-1.863421752166748,2.7004779571533204,9.538892752838134,-0.03628793981632019,0.04635660614361023,-1.6830507189937858,30.200000762939453,50956,,,,-2.0145506858825684,2.502636671066284,10.603906631469727,-0.024767408147454262,-0.029561100527644157,-1.8216029405593872,39.02411651611328,,,,,,,,,,,,,,,,2779096485
-0.7759373481750488,2.253243085479736,10.070601782226563,-0.04193501973726242,0.0074634889299479675,-1.7097923648691424,30.100000381469727,50957,18.600000381469727,-17.700000762939453,-70.5,-1.993017554283142,2.251415967941284,9.599023818969727,-0.024767408147454262,0.0018642136128619313,-1.790976643562317,39.02411651611328,,,,,,,,,,,,,,,,2779096485
-0.4987681259155273,1.298823558807373,11.57609851989746,-0.011575822414738313,-0.013737709993780364,-1.7931427217500233,30.100000381469727,50958,,,,-2.031298875808716,2.0624022483825684,10.544092178344727,-0.04261059686541557,0.04234427958726883,-1.750496506690979,39.02411651611328,,,,,,,,,,,,,,,,2779096485
0.7218297546386718,1.8199958236694336,9.38531275177002,0.07397860651656159,-0.029144403057535552,-1.8957239045461647,30.100000381469727,50959,,,,-2.024121046066284,1.9834473133087158,10.154101371765137,-0.014114759862422943,-0.022370561957359314,-1.6897764205932617,39.02411651611328,,,,,,,,,,,,,,,,2779096485
0.896210456085205,2.0661337562561033,8.761838182830811,0.02756548809500824,-0.01911405961806839,-1.9848944534755562,30.0,50960,,,,-1.9834473133087158,2.8041014671325684,9.646875381469727,-0.04793692007660866,0.013582127168774605,-1.68391752243042,39.02411651611328,,,,,,,,,,,,,,,,2779096485
-0.28783765335083006,2.660537715911865,9.49960422744751,-0.07757921360140992,0.09328316204609421,-2.0312021040607644,30.0,50961,18.899999618530273,-17.25,-70.5,-1.9475586414337158,2.75146484375,10.893407821655273,-0.040746383368968964,0.05379587784409523,-1.680721640586853,38.93000030517578,,,,,,,,,,,,,,,,2779096485
0.2802361709594727,2.572243844604492,9.702911534881592,-0.0633495445207428,0.12182174256511917,-2.0309894972545015,30.100000381469727,50962,,,,-1.442724585533142,1.430761694908142,9.488965034484863,-0.0801611840724945,0.021837931126356125,-1.7121469974517822,39.02411651611328,,,,,,,,,,,,,,,,2779096485
0.14279781036376954,2.9331073188781738,9.976678997039794,-0.06151209653927002,0.10258284061390854,-2.014445334807477,30.200000762939453,50963,,,,-1.112548828125,1.490576148033142,11.281005859375,0.041545331478118896,-0.060986414551734924,-1.7425071001052856,39.02411651611328,,,,,,,,,,,,,,,,2779096485
0.2498954391479492,3.52780463104248,10.238685292816161,-0.06519038137467942,0.07498781140471161,-2.0006604003099913,30.200000762939453,50964,,,,-0.2799316346645355,1.303955078125,10.051220893859863,0.037550587207078934,-0.03834953531622887,-1.8556914329528809,39.02411651611328,,,,,,,,,,,,,,,,2779096485
0.7993144439697265,3.5600728088378903,9.545692235565186,-0.04011614730426529,0.05939686088430283,-1.9916363455973005,30.200000762939453,50965,20.100000381469727,-15.899999618530273,-70.5,-0.19379882514476776,1.861425757408142,8.225683212280273,-0.03861585259437561,0.06125273182988167,-2.0213401317596436,39.02411651611328,,,,,,,,,,,,,,,,2779096485
0.35464310760498047,3.2012728210449217,9.845749533081054,-0.052896064734386294,0.048379330240846556,-1.9812284857601037,30.30000114440918,50966,,,,-0.4115234315395355,2.694042921066284,9.386083602905273,-0.09241172671318054,0.13022863864898682,-2.039449691772461,39.02411651611328,,,,,,,,,,,,,,,,2779096485
0.18579042053222655,2.0810376861572264,9.358887847900391,-0.030387326961344756,0.03588933118290192,-1.9410525837792902,30.30000114440918,50967,,,,0.18901367485523224,2.9356932640075684,10.022509574890137,-0.06870958209037781,0.1174454540014267,-2.0301284790039062,39.11823654174805,,,,,,,,,,,,,,,,2779096485
-0.2741082550048828,1.1795240058898926,10.994337055206298,-0.029853549587728425,0.02232743642517761,-1.86882686322227,30.30000114440918,50968,,,,0.32060545682907104,3.335253953933716,10.053613662719727,-0.06817695498466492,0.08096013218164444,-2.0074915885925293,39.02411651611328,,,,,,,,,,,,,,,,2779096485
-1.413736880493164,1.1502274848937988,10.022102840423583,-0.022954397804695433,0.02165621330864685,-1.7497567253081219,30.200000762939453,50969,19.950000762939453,-16.649999618530273,-69.5999984741211,0.28471678495407104,3.7395997047424316,10.723535537719727,-0.07297064363956451,0.06258431077003479,-1.9928443431854248,39.02411651611328,,,,,,,,,,,,,,,,2779096485
-1.6699142204284667,1.1293901855468749,9.658681587982178,0.027723340309635164,-0.0031130621874380492,-1.605305390720524,30.100000381469727,50970,,,,0.672314465045929,3.8448729515075684,9.677978515625,-0.05273061245679855,0.06524747610092163,-1.992311716079712,39.02411651611328,,,,,,,,,,,,,,,,2779096485
-2.14350408782959,0.6678096397399902,9.802381325531005,0.00946749766275238,0.016503083187492523,-1.455698509193099,30.100000381469727,50971,,,,0.74169921875,3.5721192359924316,10.254590034484863,-0.06072009727358818,0.03275689482688904,-1.9776642322540283,39.02411651611328,,,,,,,,,,,,,,,,2779096485
-2.355030648803711,0.5786961608886718,9.906724461364746,0.006214086886831665,0.010437127977375794,-1.3047851074754708,30.200000762939453,50972,,,,0.696240246295929,2.5791993141174316,9.680371284484863,-0.04980113357305527,0.04926850274205208,-1.924933671951294,39.11823654174805,,,,,,,,,,,,,,,,2779096485
-2.134268811035156,0.9917306983947753,9.585124128723145,-0.012453740119952393,0.027160308111645354,-1.1707432106480047,30.200000762939453,50973,19.350000381469727,-16.5,-70.6500015258789,0.588574230670929,2.0049805641174316,10.936474800109863,-0.019174767658114433,0.018109502270817757,-1.8421093225479126,39.02411651611328,,,,,,,,,,,,,,,,2779096485
-1.5946603858947754,1.1592592430114745,8.36819313583374,-0.05488056581233994,0.056409313478177646,-1.067183296184277,30.200000762939453,50974,,,,-0.18662109971046448,2.179638624191284,10.02490234375,-0.0298274178057909,0.015446340665221214,-1.7124133110046387,39.02411651611328,,,,,,,,,,,,,,,,2779096485
-0.42377153091430664,0.7749251754760742,11.750925437164307,-0.04191450008120438,0.02113615121455017,-0.9947442431096021,30.200000762939453,50975,,,,-0.23686523735523224,2.191601514816284,10.201952934265137,0.0005326324608176947,0.0026631623040884733,-1.561944603919983,38.93000030517578,,,,,,,,,,,,,,,,2779096485
-0.3209346725463867,2.0145587814331054,8.535237519836425,-0.0045354898053877254,0.04710445506207871,-0.9425303537416542,30.0,50976,,,,-0.768017590045929,1.909277319908142,10.285693168640137,-0.0183758195489645,0.015712657943367958,-1.412274956703186,39.02411651611328,,,,,,,,,,,,,,,,2779096485
1.286169213104248,2.9951002517700194,10.153129390716552,-0.0059640892991212465,-7.748467138336182e-05,-0.9261479184086159,30.0,50977,19.799999237060547,-15.449999809265137,-70.5,-0.971386730670929,1.442724585533142,10.008153915405273,-0.022370561957359314,0.009054751135408878,-1.2671326398849487,39.02411651611328,,,,,,,,,,,,,,,,2779096485
1.7904568672180174,2.347038503265381,12.109157038116455,-0.05799684376677216,0.018331875895482026,-0.9283861255260724,30.0,50978,,,,-0.9498535394668579,1.8997070789337158,9.76171875,-0.03462110832333565,0.04447481036186218,-1.1427628993988037,39.02411651611328,,,,,,,,,,,,,,,,2779096485
2.4346569946289063,3.653308699798584,7.685128717041016,-0.025727041428133545,0.017660872489739684,-0.9653566268671865,29.899999618530273,50979,,,,-1.012060523033142,1.203466773033142,9.778467178344727,-0.11105386167764664,0.06471484154462814,-1.0455574989318848,39.11823654174805,,,,,,,,,,,,,,,,2779096485
2.371797350311279,3.794988914489746,10.119628399658202,-0.015811293809584962,0.03548113516962524,-1.0228714118483562,29.899999618530273,50980,,,,-0.203369140625,1.65087890625,10.510595321655273,-0.031957946717739105,0.01704423874616623,-0.9867016077041626,39.02411651611328,,,,,,,,,,,,,,,,2779096485
4.035696367645263,3.7619475601196286,9.963854292297363,-0.05632361295488785,0.028966870082588195,-1.0999590458633322,29.899999618530273,50981,20.399999618530273,-15.600000381469727,-69.9000015258789,-0.16748046875,1.8686034679412842,9.010449409484863,-0.03488742560148239,0.06631273776292801,-0.9395636320114136,39.02411651611328,,,,,,,,,,,,,,,,2779096485
3.5529800483703613,4.190375085449219,11.137352141571045,0.01601874074127106,0.01694366323940201,-1.2045870477065066,30.100000381469727,50982,,,,1.3183104991912842,2.646191358566284,8.866894721984863,-0.02902846783399582,0.0050600082613527775,-0.9321067929267883,39.02411651611328,,,,,,,,,,,,,,,,2779096485
2.2485669784545896,4.527765050506591,9.125105001831054,0.09561850130574112,-0.01702280572855255,-1.2987501248286188,30.100000381469727,50983,,,,0.631640613079071,3.352001905441284,9.742578506469727,-0.07217169553041458,0.01491370890289545,-0.9331720471382141,39.02411651611328,,,,,,,,,,,,,,,,2779096485
2.441073552703857,3.653833982849121,10.751282744598388,0.3133212662792519,-0.1257601250266037,-1.3749273705470129,30.100000381469727,50984,,,,2.071972608566284,3.191699266433716,9.572705268859863,-0.06844326853752136,0.0010652649216353893,-0.9704563021659851,39.11823654174805,,,,,,,,,,,,,,,,2779096485
1.5273508827209472,1.8532404724121092,10.738084274291992,0.24217652945916854,-0.1512985880192447,-1.4339999316497027,30.200000762939453,50985,19.950000762939453,-15.0,-70.5,2.426074266433716,3.251513719558716,12.702197074890137,-0.04554007574915886,0.021038981154561043,-1.0325080156326294,39.11823654174805,,,,,,,,,,,,,,,,2779096485
1.2510694938659668,3.56141568069458,9.078039513397217,0.272948603300553,-0.5109761275469729,-1.4730544763717308,30.200000762939453,50986,,,,2.6390137672424316,3.801806688308716,9.5703125,-0.09427594393491745,0.02663162164390087,-1.1121366024017334,39.11823654174805,,,,,,,,,,,,,,,,2779096485
1.6452261039733886,6.953313761901855,7.852834648895263,0.17023264458047166,-0.23633776852008515,-1.5367854121895628,30.200000762939453,50987,,,,3.0457520484924316,3.923828125,11.359960556030273,-0.012783179059624672,0.017310554161667824,-1.2178640365600586,39.02411651611328,,,,,,,,,,,,,,,,2779096485
2.3172469429016114,8.745334926605224,7.832693776702881,-0.06919831894545608,0.07465265258382843,-1.6474442554641229,30.100000381469727,50988,,,,2.3997559547424316,4.064990043640137,9.496142387390137,0.026897938922047615,0.0010652649216353893,-1.3062810897827148,39.02411651611328,,,,,,,,,,,,,,,,2779096485
0.9853813941955566,8.838850412750244,7.707926098632813,-0.22481499627389664,0.18204086774613862,-1.7795048270332132,30.0,50989,19.649999618530273,-15.899999618530273,-69.9000015258789,1.643701195716858,3.299365282058716,12.123193740844727,0.2615225315093994,-0.133690744638443,-1.3848443031311035,39.02411651611328,,,,,,,,,,,,,,,,2779096485
-0.6552580627441406,7.018411700439453,8.852034789276123,-0.13963934208393294,0.026135370599463807,-1.8831307013387861,30.0,50990,,,,3.017040967941284,3.0218262672424316,10.379003524780273,0.2205098271369934,-0.1651160567998886,-1.4362434148788452,39.02411651611328,,,,,,,,,,,,,,,,2779096485
-0.9864469139099121,5.220453353118896,13.123853009796143,-0.11111723321613694,-0.05936465660904236,-1.9350946530401476,30.0,50991,,,,0.729736328125,2.653369188308716,12.163866996765137,0.23382563889026642,-0.5211808681488037,-1.479919195175171,39.02411651611328,,,,,,,,,,,,,,,,2779096485
-0.7161516807556152,5.271245394134521,12.013684385681152,-0.0034518162757681274,-0.06372914484201127,-1.9765697515182168,30.0,50992,,,,0.15073242783546448,5.105761528015137,7.507910251617432,0.1241033598780632,-0.21465086936950684,-1.539307713508606,39.02411651611328,,,,,,,,,,,,,,,,2779096485
-0.8142491035461425,4.58609946975708,10.88834610595703,0.04245383014565537,-0.004768063661786041,-2.0188676469252167,30.0,50993,20.399999618530273,-14.850000381469727,-70.94999694824219,-0.16987304389476776,6.708788871765137,8.981738090515137,-0.11531492322683334,0.09560752660036087,-1.643970012664795,39.11823654174805,,,,,,,,,,,,,,,,2779096485
0.01920989761352539,3.8597679298400878,10.783096332550048,0.02037919428521622,0.03835260204253433,-2.0525416808337824,30.100000381469727,50994,,,,-0.12441406399011612,8.615674018859863,7.275830268859863,-0.23089616000652313,0.19947084784507751,-1.7635459899902344,39.02411651611328,,,,,,,,,,,,,,,,2779096485
-0.0801608627319336,2.935056634521484,10.784603320312499,0.024177114973872527,0.06875827818366363,-2.0806459397294166,30.200000762939453,50995,,,,-0.21054688096046448,7.737597465515137,9.567919731140137,-0.14966972172260284,0.024501092731952667,-1.8873831033706665,39.11823654174805,,,,,,,,,,,,,,,,2779096485
0.7569878303527832,2.5848371795654295,10.025217715454101,0.04956303875822479,0.07023681194749298,-2.0998484828740946,30.200000762939453,50996,,,,-1.1580078601837158,5.945556640625,11.742773056030273,-0.13715285062789917,-0.054062195122241974,-1.934787392616272,39.02411651611328,,,,,,,,,,,,,,,,2779096485
0.06669935836791992,1.0611796524047852,11.492815978240966,0.09744712090826095,0.04145691574585159,-2.0955666258712804,30.30000114440918,50997,19.200000762939453,-14.100000381469727,-70.6500015258789,-1.614990234375,5.187109470367432,12.27392578125,-0.016245288774371147,-0.06364957988262177,-1.976332664489746,39.02411651611328,,,,,,,,,,,,,,,,2779096485
-0.14469052658081055,0.7601764266967773,11.293520201873779,0.13929888357251693,0.01641127736744568,-2.0440018553829673,30.30000114440918,50998,,,,-1.2943847179412842,4.71337890625,10.881444931030273,0.026098988950252533,0.0018642136128619313,-2.014415979385376,39.02411651611328,,,,,,,,,,,,,,,,2779096485
0.4300718620300293,1.7770863929748535,9.351994755554198,0.1998907580929477,0.05122805371820267,-1.9945241642791904,30.30000114440918,50999,,,,-1.1460449695587158,4.160693168640137,10.924511909484863,-0.0013315811520442367,0.03595269098877907,-2.047971725463867,39.02411651611328,,,,,,,,,,,,,,,,2779096485
1.2323007278442382,2.5114730331420896,9.203141554260254,0.1451708274985547,0.05676697601011734,-1.9583087090493414,30.30000114440918,51000,,,,-0.490478515625,3.591259717941284,10.835986137390137,0.017843186855316162,0.07696539163589478,-2.0876529216766357,39.02411651611328,,,,,,,,,,,,,,,,2779096485
1.2152,3.649849592590332,9.158957888793944,0.09785774039811294,0.04568086896906281,-1.9361897182412517,30.100000381469727,51001,19.799999237060547,-14.25,-70.05000305175781,0.21293945610523224,2.9117674827575684,10.591943740844727,0.03861585259437561,0.0711064338684082,-2.095109701156616,39.02411651611328,,,,,,,,,,,,,,,,2779096485
1.3534546409606933,4.5069950050354,9.860232070159912,0.14945558068903458,0.02331531605104538,-1.9331208978171186,30.0,51002,,,,0.636425793170929,2.335156202316284,10.924511909484863,0.04873586818575859,0.06311694532632828,-2.1046972274780273,38.93000030517578,,,,,,,,,,,,,,,,2779096485
2.240206114196777,5.49998296585083,11.401852737426758,0.152300309424783,-0.02286247880030304,-1.9355043337657218,30.0,51003,,,,0.16987304389476776,1.452294945716858,11.075243949890137,0.14594128727912903,0.0183758195489645,-2.0666139125823975,39.02411651611328,,,,,,,,,,,,,,,,2779096485
2.19034587020874,7.137193447113037,9.774696729278563,0.15406024610326172,-0.011008862054167633,-1.973045463971783,30.100000381469727,51004,,,,0.801513671875,1.662841796875,10.812060356140137,0.16405078768730164,0.05699167028069496,-2.0088231563568115,39.21235275268555,,,,,,,,,,,,,,,,2779096485
2.3958301620483398,8.399958311462402,9.330696473693846,0.17364624449485977,-0.017093086549236757,-2.039113689814747,30.100000381469727,51005,19.950000762939453,-14.100000381469727,-70.05000305175781,1.248925805091858,3.1055665016174316,9.543993949890137,0.13954970240592957,0.06285063177347183,-1.9675441980361938,39.02411651611328,,,,,,,,,,,,,,,,2779096485
3.0190281265258787,8.934105826568603,11.134323100280762,0.15564983368378418,-0.056191506849922336,-2.133825497959893,30.100000381469727,51006,,,,1.543212890625,4.096093654632568,10.156494140625,0.12303809821605682,0.0620516799390316,-1.9438420534133911,39.11823654174805,,,,,,,,,,,,,,,,2779096485
3.2481257064819333,9.584001411437988,12.636753898620604,0.18289859869042863,-0.07467224013351136,-2.2505928204689836,30.200000762939453,51007,,,,1.327880859375,5.036376953125,11.118310928344727,0.08282434195280075,0.03808322176337242,-1.926797866821289,38.93000030517578,,,,,,,,,,,,,,,,2779096485
3.3859713661193847,10.22065714187622,12.32571694793701,0.29335547448720767,-0.056804832844752656,-2.394674981010909,30.200000762939453,51008,,,,1.9284179210662842,5.900097846984863,11.024999618530273,0.1589907854795456,-0.019441084936261177,-1.9278631210327148,38.93000030517578,,,,,,,,,,,,,,,,2779096485
3.7777398094177244,10.062882241058348,14.51378459777832,0.4065760390283209,-0.09867687548057022,-2.547160746314828,30.200000762939453,51009,20.399999618530273,-13.050000190734863,-70.80000305175781,1.861425757408142,7.388281345367432,10.716357231140137,0.12144019454717636,-0.06791063398122787,-1.9582232236862183,39.02411651611328,,,,,,,,,,,,,,,,2779096485
3.7757078376770017,9.904028773498535,14.157142752838134,0.48419560617787094,-0.04517888308074081,-2.708098825596743,30.200000762939453,51010,,,,1.5456054210662842,8.024706840515137,10.443603515625,0.12463599443435669,-0.036751639097929,-2.0924465656280518,39.02411651611328,,,,,,,,,,,,,,,,2779096485
2.8620456550598146,9.86719948196411,13.043745456695556,0.5819467468961833,-0.050322072953194734,-2.8596631038803135,30.100000381469727,51011,,,,1.686767578125,8.87646484375,11.443700790405273,0.18722030520439148,-0.06018746644258499,-2.1877877712249756,39.02411651611328,,,,,,,,,,,,,,,,2779096485
2.9314657485961915,10.382349179077147,13.158645432281494,0.7004547647450087,-0.08060129554873337,-3.0096719895715234,30.100000381469727,51012,19.649999618530273,-13.050000190734863,-70.05000305175781,1.949951171875,9.063085556030273,11.752344131469727,0.23089616000652313,-0.05619272217154503,-2.3220112323760986,38.93000030517578,,,,,,,,,,,,,,,,2779096485
2.555856703186035,9.727848030853272,14.644584189605713,0.765991277164187,-0.0684682532850444,-3.16507980849291,30.200000762939453,51013,,,,1.906884789466858,9.651659965515137,12.711767196655273,0.3246394693851471,-0.07776433974504471,-2.4650230407714844,39.02411651611328,,,,,,,,,,,,,,,,2779096485
0.9567159530639648,8.832012088012695,14.21267467803955,0.8949463232916726,-0.057526036836698,-3.2913616800629883,30.200000762939453,51014,,,,2.043261766433716,9.529638290405273,13.831494331359863,0.43809017539024353,-0.07323696464300156,-2.623481035232544,39.02411651611328,,,,,,,,,,,,,,,,2779096485
0.31453153533935546,8.04662188796997,13.766268311309814,1.0429420656076016,-0.06914188656234513,-3.3780526129816693,30.200000762939453,51015,,,,2.024121046066284,9.582275390625,12.666308403015137,0.5297029614448547,-0.010386332869529724,-2.782205581665039,39.02411651611328,,,,,,,,,,,,,,,,2779096485
-0.3783867164611816,7.455739429473876,13.995942614746093,1.1015126008745535,-0.08268347471689713,-3.4346293527385265,30.200000762939453,51016,20.399999618530273,-12.600000381469727,-68.8499984741211,1.4379394054412842,9.383691787719727,12.362451553344727,0.6343652606010437,-0.07403591275215149,-2.9220216274261475,39.02411651611328,,,,,,,,,,,,,,,,2779096485
-1.0113430725097656,7.515940695190429,13.137927911376952,1.193605017000137,-0.056582612027020876,-3.4661933707878254,30.100000381469727,51017,,,,1.239355444908142,9.838281631469727,13.192675590515137,0.7150590419769287,-0.073503278195858,-3.069827079772949,39.02411651611328,,,,,,,,,,,,,,,,2779096485
-0.9123928077697754,6.611059610748291,13.54485161743164,1.3184367574192166,-0.12935940053091613,-3.471985273407851,30.0,51018,,,,0.9881347417831421,9.663622856140137,13.455859184265137,0.8170581459999084,-0.04261059686541557,-3.222959041595459,39.11823654174805,,,,,,,,,,,,,,,,2779096485
-0.4237911949157715,6.648044158172607,13.476448855590819,1.429969523657383,-0.21309391173849823,-3.4622073510326694,30.0,51019,,,,-0.13637694716453552,9.082226753234863,13.367334365844727,0.9419604539871216,-0.06125273182988167,-3.320697069168091,39.02411651611328,,,,,,,,,,,,,,,,2779096485
0.32494272689819337,7.3580232490539546,11.262773965454102,1.5917658798316079,-0.20972972011989427,-3.4652267431873107,30.0,51020,19.649999618530273,-12.300000190734863,-69.75,-0.4378418028354645,8.539111137390137,13.245312690734863,1.0681943893432617,-0.060986414551734924,-3.404852867126465,39.02411651611328,,,,,,,,,,,,,,,,2779096485
0.9810923614501953,5.46316212310791,12.163562619781494,1.7762346782899563,-0.5185387326741097,-3.4334481742241665,30.0,51021,,,,-1.1819336414337158,7.859619140625,13.931982040405273,1.1057449579238892,-0.0668453723192215,-3.443202495574951,39.02411651611328,,,,,,,,,,,,,,,,2779096485
2.717753231048584,4.396032054138184,13.402345252990722,1.9381159094075389,-0.7391189166855249,-3.3779013853802082,30.0,51022,,,,-1.1388671398162842,7.883544921875,12.977343559265137,1.2245219945907593,-0.060453783720731735,-3.471165657043457,39.11823654174805,,,,,,,,,,,,,,,,2779096485
3.7602977279663086,3.414583684539795,11.124788526916504,1.8596869077397353,-0.7709360881684042,-3.2865916123724954,30.100000381469727,51023,,,,-0.715380847454071,7.84765625,12.025097846984863,1.3816485404968262,-0.15526235103607178,-3.47169828414917,39.11823654174805,,,,,,,,,,,,,,,,2779096485
2.839083484649658,3.4393451484680173,9.556963409423828,1.8759858529731734,-1.0271770974848602,-3.1411180700128147,30.200000762939453,51024,19.049999237060547,-12.449999809265137,-69.1500015258789,-0.8421875238418579,7.589257717132568,13.690332412719727,1.4191991090774536,-0.20373190939426422,-3.459181308746338,39.11823654174805,,,,,,,,,,,,,,,,2779096485
2.180113262176514,4.851669548034668,7.168498500061035,1.9810701342027757,-1.3810238988462338,-2.985284751189088,30.200000762939453,51025,,,,0.921142578125,8.01513671875,10.3359375,1.6373121738433838,-0.23169511556625366,-3.4703667163848877,39.11823654174805,,,,,,,,,,,,,,,,2779096485
1.4374849006652832,5.030158679962158,5.789146630859375,2.01647461028095,-1.7071392838620219,-2.8205218732653994,30.30000114440918,51026,,,,1.741796851158142,7.773486137390137,9.962695121765137,1.8618167638778687,-0.6157231330871582,-3.4152393341064453,38.93000030517578,,,,,,,,,,,,,,,,2779096485
0.6903753524780273,5.1020394279479975,4.9740255821228025,1.9372579787261683,-2.0052546927118438,-2.627383773122829,30.30000114440918,51027,,,,3.084033250808716,5.397656440734863,14.967968940734863,1.9110852479934692,-0.7475496530532837,-3.3651719093322754,39.02411651611328,,,,,,,,,,,,,,,,2779096485
0.12876552658081053,5.368961686706543,3.5308452613830563,1.7624442177332469,-2.253240874759581,-2.4055618836037946,30.30000114440918,51028,17.850000381469727,-12.300000190734863,-69.30000305175781,4.478906154632568,4.531542778015137,14.336328506469727,1.8018956184387207,-0.7819044589996338,-3.2578463554382324,39.02411651611328,,,,,,,,,,,,,,,,2779096485
-0.27115592575073244,6.140985487365723,1.9973388359069824,1.5062105720571541,-2.451820791683487,-2.1786494415908906,30.30000114440918,51029,,,,5.234961032867432,5.5029296875,11.096776962280273,1.867409348487854,-1.094559669494629,-3.116698741912842,39.02411651611328,,,,,,,,,,,,,,,,2779096485
-1.6315996238708494,3.9006551460266112,1.5935655197143554,1.1229130508517695,-2.5741434681883044,-1.9377069211038433,30.200000762939453,51030,,,,4.526757717132568,6.132177829742432,10.161279678344727,1.9648810625076294,-1.4391728639602661,-2.957441568374634,39.11823654174805,,,,,,,,,,,,,,,,2779096485
-1.4622482337951659,-1.8696934097290039,8.704372232055663,0.3726976141653993,-2.408538751734022,-1.6030377689890296,30.200000762939453,51031,,,,3.7994141578674316,6.347509860992432,8.912353515625,1.9904474020004272,-1.7339849472045898,-2.7933907508850098,39.02411651611328,,,,,,,,,,,,,,,,2779096485
0.24014392623901368,-3.241874909210205,6.260078942108154,-0.6474765148599474,-1.8566275948006286,-1.178584974976588,30.200000762939453,51032,17.100000381469727,-12.600000381469727,-69.1500015258789,3.674999952316284,6.261376857757568,8.407519340515137,1.8889809846878052,-2.0367865562438965,-2.5987136363983154,39.02411651611328,,,,,,,,,,,,,,,,2779096485
-0.3999765937805176,2.0136659385681153,2.8551519645690915,-1.753189266955633,-1.433094343700953,-0.7598178101416027,30.0,51033,,,,3.0313963890075684,6.445605278015137,7.531836032867432,1.705755352973938,-2.272742748260498,-2.377671241760254,39.02411651611328,,,,,,,,,,,,,,,,2779096485
-1.9522819541931151,6.550421699523926,1.61320152053833,-2.5425668866766498,-1.1775517017702517,-0.44063504618561705,29.899999618530273,51034,,,,2.4834961891174316,6.67529296875,6.522168159484863,1.4391728639602661,-2.4572997093200684,-2.158226728439331,39.02411651611328,,,,,,,,,,,,,,,,2779096485
-2.5267893089294433,8.379268417358398,2.093228731536865,-3.2113319721171876,-0.9941066224278945,-0.20185789536071336,29.899999618530273,51035,,,,1.3183104991912842,5.412011623382568,6.165673732757568,1.0844396352767944,-2.5744788646698,-1.927330493927002,39.02411651611328,,,,,,,,,,,,,,,,2779096485
-2.8016614318847655,9.553041899108887,3.402346058654785,-3.7961971174422673,-0.8164295172033327,-0.024842905241816864,30.0,51036,14.399999618530273,-10.949999809265137,-71.0999984741211,0.7177734375,0.825439453125,11.931787490844727,0.3307647407054901,-2.3691492080688477,-1.603756308555603,39.02411651611328,,,,,,,,,,,,,,,,2779096485
-1.9793556953430176,10.305553888702391,5.183971920013428,-4.296441418265564,-0.6129198627668763,0.07362822773015319,30.0,51037,,,,2.619873046875,-3.878369092941284,15.28857421875,-0.736098051071167,-1.7899113893508911,-1.1965588331222534,39.02411651611328,,,,,,,,,,,,,,,,2779096485
-0.6324265869140625,10.929047747802734,7.58882131652832,-4.71140896464671,-0.4319996598576442,0.09308902426186431,30.0,51038,,,,3.050537109375,-0.6292480230331421,11.391064643859863,-1.8474355936050415,-1.3856433629989624,-0.7728496789932251,39.02411651611328,,,,,,,,,,,,,,,,2779096485
0.06034949340820312,10.527144268798828,8.647854489898682,-5.008578438657545,-0.25479542551298723,0.0381680982434816,30.200000762939453,51039,,,,0.945068359375,5.919238090515137,8.240038871765137,-2.5798051357269287,-1.1454260349273682,-0.46365654468536377,39.02411651611328,,,,,,,,,,,,,,,,2779096485
0.02364252243041992,9.15401814956665,8.089981571960449,-5.224016131876287,-0.12059089609677048,-0.06778630428729705,30.200000762939453,51040,14.550000190734863,-10.800000190734863,-70.80000305175781,-0.504833996295929,7.859619140625,6.814062595367432,-3.220029354095459,-0.9795110821723938,-0.22477088868618011,39.02411651611328,,,,,,,,,,,,,,,,2779096485
-0.37199875717163083,7.9136149559021,8.077028415679932,-5.367741335623958,-0.02291303225534805,-0.20546949464288544,30.200000762939453,51041,,,,-1.9475586414337158,9.197070121765137,7.125097751617432,-3.781424045562744,-0.7957528829574585,-0.0482032373547554,39.02411651611328,,,,,,,,,,,,,,,,2779096485
-0.24094667358398436,7.092991313934326,8.093333947753907,-5.419788391266564,0.036315403664872896,-0.3595482830051094,30.100000381469727,51042,,,,-1.9714844226837158,9.797607421875,8.048632621765137,-4.276239395141602,-0.6008093953132629,0.05992114916443825,38.93000030517578,,,,,,,,,,,,,,,,2779096485
-0.18781177520751952,5.994376000976562,7.8671852951049805,-5.354836163070728,0.024241297155702363,-0.5189452708696192,30.0,51043,,,,-1.6413085460662842,10.517773628234863,9.455469131469727,-4.686100482940674,-0.42504069209098816,0.09108015149831772,38.93000030517578,,,,,,,,,,,,,,,,2779096485
-0.4659691696166992,4.8760551902771,8.277004581451417,-5.064042383218463,-0.12401273183677307,-0.73977777607678,30.0,51044,13.649999618530273,-7.800000190734863,-69.75,-1.2058594226837158,10.556055068969727,10.398144721984863,-4.983575344085693,-0.24367934465408325,0.042077962309122086,39.11823654174805,,,,,,,,,,,,,,,,2779096485
-0.8082658638000488,4.168317646026611,8.389965970611572,-4.770732708443787,-0.30098921264657164,-0.8616209437727216,30.100000381469727,51045,,,,-1.2465331554412842,9.316699028015137,9.663622856140137,-5.1923675537109375,-0.10998860001564026,-0.053529560565948486,39.11823654174805,,,,,,,,,,,,,,,,2779096485
-1.0777744621276855,3.9450841629028317,9.92421402053833,-4.414493183359573,-0.5022922983191043,-0.969560965909104,30.100000381469727,51046,,,,-1.74658203125,8.256787300109863,9.25927734375,-5.341238021850586,-0.007989486679434776,-0.18828557431697845,39.02411651611328,,,,,,,,,,,,,,,,2779096485
-0.8592101699829101,3.230503733062744,11.250181116485596,-4.051688606706683,-0.710947359709607,-1.0482453913553016,30.100000381469727,51047,13.949999809265137,-5.849999904632568,-70.19999694824219,-1.909277319908142,7.268652439117432,8.426660537719727,-5.407550811767578,0.059122201055288315,-0.33103105425834656,39.02411651611328,,,,,,,,,,,,,,,,2779096485
-0.9126815246582031,2.8530707954406735,12.544350587463379,-3.6574040946574318,-0.8842040037133737,-1.1031636475547097,30.200000762939453,51048,,,,-1.4259765148162842,5.52685546875,8.125195503234863,-5.360945701599121,0.060986414551734924,-0.49135342240333557,39.11823654174805,,,,,,,,,,,,,,,,2779096485
-0.551937604522705,2.3067439361572264,13.996155554199218,-3.263620596442712,-1.0457957159329405,-1.1324015874869888,30.200000762939453,51049,,,,-1.3972656726837158,5.486181735992432,6.971972465515137,-4.978781700134277,-0.1379518061876297,-0.7821707725524902,39.11823654174805,,,,,,,,,,,,,,,,2779096485
-0.4691886077880859,1.9741950538635253,14.092666622924805,-2.869295471187117,-1.1598791313455044,-1.139892114159718,30.200000762939453,51050,,,,-1.500146508216858,4.926318168640137,6.660937309265137,-4.676512718200684,-0.32517209649086,-0.890295147895813,39.11823654174805,,,,,,,,,,,,,,,,2779096485
-0.12819224243164062,2.005703401184082,14.802771959686279,-2.5051113304937274,-1.254061969122769,-1.1359362280720893,30.30000114440918,51051,12.600000381469727,-4.650000095367432,-70.3499984741211,-1.488183617591858,5.036376953125,7.795019626617432,-4.323643684387207,-0.5257081985473633,-0.9946910738945007,39.11823654174805,,,,,,,,,,,,,,,,2779096485
0.019982887268066407,2.449260730743408,15.362691877746581,-2.1571526717356106,-1.315142487094552,-1.129323039867041,30.30000114440918,51052,,,,-1.256103515625,4.395165920257568,9.024805068969727,-3.9718401432037354,-0.7313043475151062,-1.0631343126296997,39.02411651611328,,,,,,,,,,,,,,,,2779096485
0.08296473999023438,2.997528120422363,15.105333127593994,-1.8236333394135371,-1.3362195094754061,-1.1161895878046415,30.30000114440918,51053,,,,-1.059912085533142,4.124804496765137,9.840673446655273,-3.5835511684417725,-0.8950888514518738,-1.1081417798995972,39.02411651611328,,,,,,,,,,,,,,,,2779096485
-0.015657068634033204,3.5217803436279294,14.6032918800354,-1.5319217943085215,-1.3207014696472401,-1.1052133228419925,30.30000114440918,51054,,,,-0.684277355670929,3.8329100608825684,11.010644912719727,-3.2029852867126465,-1.0482206344604492,-1.1390345096588135,39.02411651611328,,,,,,,,,,,,,,,,2779096485
-0.14054067459106445,4.367901055145263,13.679389388275146,-1.272358058791349,-1.2888722739921217,-1.100975168312366,30.200000762939453,51055,11.25,-3.0,-70.19999694824219,-0.34931641817092896,3.244335889816284,11.486767768859863,-2.8181583881378174,-1.158209204673767,-1.1443607807159424,39.02411651611328,,,,,,,,,,,,,,,,2779096485
-0.2588926170349121,4.663553653717041,13.32026509399414,-1.0844015912513036,-1.2518527771451895,-1.1034791522468832,30.200000762939453,51056,,,,-0.083740234375,3.1534180641174316,11.869580268859863,-2.4716808795928955,-1.2455610036849976,-1.1358387470245361,39.02411651611328,,,,,,,,,,,,,,,,2779096485
-0.17261718444824217,4.812336722564697,12.229426856231688,-0.898959394105415,-1.2157540482651163,-1.110770634261108,30.200000762939453,51057,,,,0.011962890625,3.4979491233825684,12.314599990844727,-2.132660388946533,-1.3036179542541504,-1.128914475440979,39.02411651611328,,,,,,,,,,,,,,,,2779096485
-0.44293993225097655,4.692899596405029,11.4514529006958,-0.7441771850093025,-1.1925462240528306,-1.1237062001400688,30.200000762939453,51058,,,,0.10288085788488388,4.002783298492432,12.376806259155273,-1.8117492198944092,-1.3193305730819702,-1.1145334243774414,38.93000030517578,,,,,,,,,,,,,,,,2779096485
-0.8797600608825683,4.751424748992919,10.419901103973388,-0.6189452780075778,-1.1824606799422483,-1.1335050150138584,30.200000762939453,51059,9.300000190734863,-2.4000000953674316,-69.9000015258789,0.10048828274011612,4.309033393859863,12.120800971984863,-1.536378264427185,-1.3041505813598633,-1.1001523733139038,39.02411651611328,,,,,,,,,,,,,,,,2779096485
-1.2824314079284667,4.776979427337646,9.753704846954346,-0.5237532952632872,-1.1922473574594532,-1.1357033479521677,30.200000762939453,51060,,,,-0.21054688096046448,4.694238185882568,11.74755859375,-1.2812473773956299,-1.2745894193649292,-1.1012176275253296,39.02411651611328,,,,,,,,,,,,,,,,2779096485
-1.6197626052856444,4.50324729309082,9.875294583129882,-0.4420154025165353,-1.203709556107064,-1.1381218044688648,30.100000381469727,51061,,,,-0.47612303495407104,5.345019340515137,11.706884384155273,-1.1078754663467407,-1.233044147491455,-1.1033481359481812,39.02411651611328,,,,,,,,,,,,,,,,2779096485
-1.953945468902588,4.220399174499511,9.609304682159424,-0.3491262551510106,-1.2332368152002784,-1.1310052521896399,30.100000381469727,51062,,,,-0.5215820074081421,5.388085842132568,11.036962509155273,-0.9267804622650146,-1.2098746299743652,-1.1132018566131592,39.02411651611328,,,,,,,,,,,,,,,,2779096485
-2.443847036743164,3.70019676361084,9.899767591857909,-0.2586214358930481,-1.2530425110644927,-1.119114630820412,30.100000381469727,51063,9.0,-2.25,-70.3499984741211,-0.607714831829071,5.323486328125,10.558446884155273,-0.7717844247817993,-1.1781829595565796,-1.1251860857009888,39.02411651611328,,,,,,,,,,,,,,,,2779096485
-2.5742570121765134,3.3502056503295896,9.79793445739746,-0.17733017523174133,-1.2825057411076388,-1.0944786132464563,30.100000381469727,51064,,,,-0.9043945074081421,5.206250190734863,9.984228134155273,-0.645550549030304,-1.1648671627044678,-1.1318439245224,39.02411651611328,,,,,,,,,,,,,,,,2779096485
-2.429748433685303,2.963758824157715,10.058268789672852,-0.09536551431972763,-1.3018954245808307,-1.067344264297358,30.100000381469727,51065,,,,-1.1460449695587158,5.103369235992432,9.462646484375,-0.5534051060676575,-1.1792482137680054,-1.1385018825531006,39.02411651611328,,,,,,,,,,,,,,,,2779096485
-2.346953903198242,2.3524689079284666,10.249508867645263,-0.03826316643584137,-1.2957207657936667,-1.0327876654675083,30.100000381469727,51066,,,,-1.351806640625,4.9765625,9.343017578125,-0.47750499844551086,-1.1917650699615479,-1.1385018825531006,39.11823654174805,,,,,,,,,,,,,,,,2779096485
-1.678582755279541,2.2773663665771484,11.307523812103272,0.02461747531499359,-1.2578114535694325,-0.9946481163107163,30.200000762939453,51067,7.050000190734863,-1.5,-70.6500015258789,-1.7202637195587158,4.670312404632568,9.280810356140137,-0.3818974494934082,-1.2197283506393433,-1.1374366283416748,39.11823654174805,,,,,,,,,,,,,,,,2779096485
-1.5676130752563475,1.8461513008117676,12.25263078918457,0.11777183357585129,-1.1911843234281398,-0.9571673599661523,30.30000114440918,51068,,,,-2.1102538108825684,4.340136528015137,9.249707221984863,-0.3036004900932312,-1.2386367321014404,-1.1227891445159912,39.11823654174805,,,,,,,,,,,,,,,,2779096485
-1.442476342010498,1.2112407318115235,12.69070926437378,0.23340325130880174,-1.0949543004191944,-0.9044740483420631,30.30000114440918,51069,,,,-2.3040528297424316,4.151123046875,9.457860946655273,-0.21837930381298065,-1.2719262838363647,-1.1001523733139038,38.93000030517578,,,,,,,,,,,,,,,,2779096485
-1.4070490264892577,0.5755651733398437,13.2019587600708,0.3328706395482103,-0.9651997533642533,-0.8370811728398998,30.30000114440918,51070,,,,-2.1963868141174316,3.698925733566284,9.54638671875,-0.1379518061876297,-1.287905216217041,-1.076982855796814,38.93000030517578,,,,,,,,,,,,,,,,2779096485
-1.4356353630065917,0.2884689949035644,13.149328247070311,0.4363155121115398,-0.8158930700107418,-0.7554655391600505,30.0,51071,6.150000095367432,-2.549999952316284,-70.19999694824219,-1.8446776866912842,2.796923875808716,10.020116806030273,-0.029561100527644157,-1.2620725631713867,-1.0053437948226929,39.02411651611328,,,,,,,,,,,,,,,,2779096485
-1.4959470237731933,-0.2317091911315918,13.563080034637451,0.5296056915870581,-0.6600245841450622,-0.6657731637923524,29.899999618530273,51072,,,,-1.524072289466858,2.835205078125,10.436426162719727,0.06364957988262177,-1.2037492990493774,-0.974717378616333,39.11823654174805,,,,,,,,,,,,,,,,2779096485
-1.8310234405517578,-0.4624392944335937,13.145664873504638,0.6020189785783638,-0.4912733961476961,-0.5685359998450877,30.0,51073,,,,-1.3781249523162842,2.3040528297424316,11.07763671875,0.16937711834907532,-1.1217238903045654,-0.9262478351593018,39.11823654174805,,,,,,,,,,,,,,,,2779096485
-2.1092098823547363,-0.45708264846801755,12.89806014099121,0.6294363150229491,-0.3224343904139882,-0.46933036704952147,30.0,51074,,,,-1.1269042491912842,1.882959008216858,11.082422256469727,0.2679141163825989,-0.9968216419219971,-0.8684571981430054,39.02411651611328,,,,,,,,,,,,,,,,2779096485
-2.3821254745483396,-0.6781570541381836,13.034477095031738,0.6392640451680754,-0.17078240757842134,-0.37100079440432177,30.0,51075,6.599999904632568,-2.25,-70.5,-0.992919921875,1.3853027820587158,11.388671875,0.37550586462020874,-0.865261435508728,-0.7973507642745972,39.11823654174805,,,,,,,,,,,,,,,,2779096485
-2.597461767578125,-0.4283763092041015,12.40062901763916,0.6393239063710663,-0.01916946002626404,-0.2761691440109453,30.0,51076,,,,-1.069482445716858,1.081445336341858,11.584863662719727,0.464988112449646,-0.7068032622337341,-0.711064338684082,39.02411651611328,,,,,,,,,,,,,,,,2779096485
-2.785969633483887,-0.4095496726989746,12.712486211395264,0.6274346565297905,0.10599261223425598,-0.19261334422708482,30.0,51077,,,,-1.0981934070587158,0.6220703125,11.793017387390137,0.5467472076416016,-0.5520735383033752,-0.6223810315132141,39.02411651611328,,,,,,,,,,,,,,,,2779096485
-3.4230114288330076,-0.28015220642089844,12.214760389709472,0.6024981078867873,0.21942814713708314,-0.10616302791123901,30.0,51078,,,,-1.3781249523162842,0.36845701932907104,11.931787490844727,0.5944178104400635,-0.39015325903892517,-0.524376630783081,39.11823654174805,,,,,,,,,,,,,,,,2779096485
-3.6230674468994137,-0.18575726089477537,11.720799626159668,0.5782037938520485,0.2822120096145697,0.005910293445471344,30.0,51079,4.800000190734863,-2.549999952316284,-70.3499984741211,-1.751367211341858,0.15791015326976776,11.998779296875,0.6000104546546936,-0.22610247135162354,-0.4290354251861572,39.02411651611328,,,,,,,,,,,,,,,,2779096485
-4.1478462989807126,0.030289104461669922,11.582562331390381,0.5695102840336841,0.2967171227869881,0.13639635092570557,30.200000762939453,51080,,,,-1.835107445716858,0.07895507663488388,12.096875190734863,0.6077336072921753,-0.08708540350198746,-0.3390205502510071,39.02411651611328,,,,,,,,,,,,,,,,2779096485
-4.805867714691162,0.22825834579467771,11.069973627471924,0.525413057138051,0.3031354208648036,0.25181726574964003,30.200000762939453,51081,,,,-2.198779344558716,0.14594726264476776,12.099267959594727,0.5864283442497253,0.05113271623849869,-0.2487393468618393,39.02411651611328,,,,,,,,,,,,,,,,2779096485
-5.0870437202453616,0.132663484954834,11.283056896972656,0.4706639183246033,0.27766098692223085,0.3643065795236647,30.200000762939453,51082,,,,-2.380615234375,0.20576171576976776,12.204541206359863,0.5837651491165161,0.16538237035274506,-0.17124132812023163,39.02411651611328,,,,,,,,,,,,,,,,2779096485
-5.373386423492431,0.0561836784362793,10.711117115020752,0.4192322393108525,0.2504404847124606,0.48204325271546583,30.200000762939453,51083,4.349999904632568,-2.0999999046325684,-69.75,-2.741894483566284,0.4856933653354645,12.190185546875,0.5523398518562317,0.2519351541996002,-0.08042749762535095,39.02411651611328,,,,,,,,,,,,,,,,2779096485
-5.591964547729492,-0.2716305160522461,10.953061082458495,0.355550911525885,0.20344471325372115,0.6168275256653978,30.200000762939453,51084,,,,-2.5050292015075684,0.6890624761581421,11.905468940734863,0.5275724530220032,0.2980078458786011,0.040746383368968964,38.93000030517578,,,,,,,,,,,,,,,,2779096485
-5.4737561973571776,-0.7311595008850097,10.85531484527588,0.3169162674100441,0.15063051409068132,0.7605110709160023,30.200000762939453,51085,,,,-3.0553221702575684,0.846972644329071,12.056200981140137,0.5161208510398865,0.2897520363330841,0.16777922213077545,39.11823654174805,,,,,,,,,,,,,,,,2779096485
-5.8888483894348145,-1.1393439834594725,10.571211221313476,0.26634473615925597,0.09027268482314102,0.9256358524556372,30.200000762939453,51086,,,,-3.7730956077575684,0.906787097454071,11.955713272094727,0.45619967579841614,0.28948572278022766,0.27190884947776794,39.02411651611328,,,,,,,,,,,,,,,,2779096485
-6.230841899108887,-1.0445226356506347,9.851144647216797,0.23443899459703202,0.02791449535346466,1.1066421553623198,30.200000762939453,51087,3.9000000953674316,-2.0999999046325684,-69.1500015258789,-3.974072217941284,0.846972644329071,11.93896484375,0.4085290729999542,0.25939199328422546,0.38109850883483887,39.02411651611328,,,,,,,,,,,,,,,,2779096485
-6.674752171325683,-1.0998649490356445,10.157587174987793,0.1659632644872786,-0.023963149955463257,1.2693541396025352,30.200000762939453,51088,,,,-3.9764647483825684,0.861328125,11.874364852905273,0.35686373710632324,0.21917824447155,0.5030713677406311,39.02411651611328,,,,,,,,,,,,,,,,2779096485
-7.150249671173095,-0.9029090019226074,8.458680477905274,0.10241484841350082,-0.05720741624607056,1.3983834013711884,30.200000762939453,51089,,,,-4.036279201507568,0.514404296875,11.733202934265137,0.2897520363330841,0.174703449010849,0.6399579048156738,39.02411651611328,,,,,,,,,,,,,,,,2779096485
-7.142425566864014,-1.3220943717956541,8.703958764648437,0.004818816853911438,-0.11574185236469436,1.5234517170461765,30.100000381469727,51090,4.199999809265137,-2.700000047683716,-69.75,-3.914257764816284,0.35649412870407104,11.797802925109863,0.2567288279533386,0.1217065155506134,0.7827033996582031,39.02411651611328,,,,,,,,,,,,,,,,2779096485
-6.9670070472717285,-1.4937648803710937,8.17721743774414,-0.08801544941982666,-0.1857857715557585,1.6505390217349978,30.100000381469727,51091,,,,-3.935791015625,0.01674804650247097,11.572900772094727,0.20160138607025146,0.05805693566799164,0.9539446830749512,39.02411651611328,,,,,,,,,,,,,,,,2779096485
-7.051311219787597,-1.6891078559875488,8.115664589691162,-0.1696991268650598,-0.25011834874921846,1.773039291135887,30.100000381469727,51092,,,,-4.182226657867432,0.05502929538488388,11.302538871765137,0.1651160567998886,-0.0018642136128619313,1.1339744329452515,39.02411651611328,,,,,,,,,,,,,,,,2779096485
-6.771290044403076,-2.0060778022766113,8.601983683013916,-0.24722611587785218,-0.30352161916762743,1.893856569239564,30.100000381469727,51093,,,,-5.194287300109863,-0.07177734375,11.039355278015137,0.10146648436784744,-0.043942175805568695,1.2793831825256348,39.11823654174805,,,,,,,,,,,,,,,,2779096485
-6.303017532348632,-2.308436087036133,9.243488496398925,-0.27367437461373645,-0.3444882136706514,2.0160828126819728,30.100000381469727,51094,3.450000047683716,-3.450000047683716,-69.5999984741211,-5.770898342132568,-0.13637694716453552,10.247411727905273,0.019973717629909515,-0.08309066295623779,1.4080138206481934,39.02411651611328,,,,,,,,,,,,,,,,2779096485
-6.077820714569092,-2.6663217735290528,9.892731169128417,-0.2661668236838559,-0.36420750993179457,2.1445464989338126,30.100000381469727,51095,,,,-5.689550876617432,-0.500048816204071,10.067968368530273,-0.06631273776292801,-0.1384844332933426,1.5305193662643433,39.02411651611328,,,,,,,,,,,,,,,,2779096485
-5.673977041625976,-3.07187599029541,10.631433010864258,-0.20933422738492996,-0.3590720898317676,2.2744763086188873,30.200000762939453,51096,,,,-5.849853515625,-0.791943371295929,9.704297065734863,-0.16005605459213257,-0.21012349426746368,1.6548889875411987,39.02411651611328,,,,,,,,,,,,,,,,2779096485
-5.202950522613525,-3.3821730361938473,11.748223992156982,-0.11673368678475372,-0.3360178368026859,2.4049385374654317,30.200000762939453,51097,,,,-5.830712795257568,-0.954638659954071,9.644482612609863,-0.2415488213300705,-0.2729741334915161,1.7680734395980835,39.11823654174805,,,,,,,,,,,,,,,,2779096485
-3.7767704414367675,-2.620221615600586,12.37321870803833,0.028571916637740936,-0.29287618538911986,2.5219220154429127,30.200000762939453,51098,2.4000000953674316,-3.0,-68.55000305175781,-5.699120998382568,-1.0264160633087158,9.474609375,-0.3131878674030304,-0.32197630405426025,1.8865841627120972,39.11823654174805,,,,,,,,,,,,,,,,2779096485
-4.27442007446289,-3.7197038642883298,13.65071807785034,0.20478640048587723,-0.2531810572186919,2.6369116646207864,30.200000762939453,51099,,,,-5.251708984375,-1.2919921875,9.543993949890137,-0.3318300247192383,-0.3643206059932709,2.011486530303955,39.02411651611328,,,,,,,,,,,,,,,,2779096485
-4.671722214508057,-4.51747064666748,13.195443395996094,0.3760493555059927,-0.1275187634140599,2.7498053527719497,30.200000762939453,51100,,,,-4.883252143859863,-1.4379394054412842,9.802392959594727,-0.3230415880680084,-0.37790271639823914,2.132660388946533,39.02411651611328,,,,,,,,,,,,,,,,2779096485
-4.866200983428955,-4.993660274505615,13.9209193649292,0.5189756841690588,-0.004320566048992615,2.850217697138652,30.200000762939453,51101,,,,-4.581787109375,-1.782470703125,10.039258003234863,-0.259125679731369,-0.3691142797470093,2.2658183574676514,39.11823654174805,,,,,,,,,,,,,,,,2779096485
-4.683123372650146,-4.5136303718566895,13.798064440917969,0.6593070419995904,0.15037833936879472,2.8900313226609686,30.200000762939453,51102,2.549999952316284,-3.75,-69.1500015258789,-4.40234375,-2.0576171875,10.187597274780273,-0.1699097454547882,-0.34594476222991943,2.3880574703216553,39.02411651611328,,,,,,,,,,,,,,,,2779096485
-4.579468701171875,-3.58277942199707,13.0483552444458,0.7547439956150686,0.3425172947141638,2.812588409643212,30.200000762939453,51103,,,,-2.8232421875,-1.009667992591858,10.345507621765137,-0.02396846003830433,-0.29720890522003174,2.5052366256713867,39.02411651611328,,,,,,,,,,,,,,,,2779096485
-4.461448317718506,-2.818643465423584,12.110381776428222,0.782548289363383,0.5644949125768701,2.6016024964194684,30.200000762939453,51104,,,,-3.268261671066284,-1.6484863758087158,11.426953315734863,0.14620760083198547,-0.26604992151260376,2.6125621795654297,38.93000030517578,,,,,,,,,,,,,,,,2779096485
-4.858794683074951,-3.1251092834472654,11.551146995544434,0.7880232625000616,0.7661503278012962,2.3114310040990405,30.200000762939453,51105,,,,-4.014746189117432,-2.969189405441284,11.237939834594727,0.3174489438533783,-0.13662022352218628,2.7252140045166016,39.02411651611328,,,,,,,,,,,,,,,,2779096485
-5.482997231292725,-4.1875951339721675,11.438409910583495,0.8108511401801396,0.9387625400889144,2.020214414137117,30.200000762939453,51106,2.0999999046325684,-3.9000000953674316,-69.44999694824219,-4.184618949890137,-3.526660203933716,11.414990425109863,0.44900915026664734,-0.018642134964466095,2.8248162269592285,39.02411651611328,,,,,,,,,,,,,,,,2779096485
-6.200750630950927,-5.527968952178955,11.215301402282714,0.8752676136052632,1.0788206775671896,1.787653434122584,30.200000762939453,51107,,,,-5.177538871765137,-4.007568359375,11.678174018859863,0.5853630304336548,0.13209284842014313,2.874617338180542,39.02411651611328,,,,,,,,,,,,,,,,2779096485
-6.915281153106689,-7.2466398773193355,10.434663535308838,0.9699055456622786,1.1832619585297193,1.650472902103488,30.200000762939453,51108,,,,-5.931200981140137,-3.9429688453674316,11.570508003234863,0.6804379224777222,0.32330790162086487,2.815495014190674,39.02411651611328,,,,,,,,,,,,,,,,2779096485
-7.262334367370605,-8.34155196533203,10.022417015838622,1.0452717589657763,1.248609812618573,1.6178310961105384,30.200000762939453,51109,,,,-7.498339653015137,-4.045849800109863,10.914941787719727,0.7153253555297852,0.5360945463180542,2.6213505268096924,39.02411651611328,,,,,,,,,,,,,,,,2779096485
-6.95361960067749,-8.669833123779297,9.371765937042236,1.1109489129211552,1.274114999413622,1.6683199228942425,30.200000762939453,51110,2.549999952316284,-4.349999904632568,-68.25,-8.074951171875,-4.371240139007568,10.644579887390137,0.7169232964515686,0.7406254410743713,2.332930088043213,39.02411651611328,,,,,,,,,,,,,,,,2779096485
-6.537921600341797,-8.68765506439209,8.93757442932129,1.1189758867864752,1.2899762541249136,1.7732910930152235,30.200000762939453,51111,,,,-8.586962699890137,-5.108154296875,10.230664253234863,0.7379622459411621,0.9185246825218201,2.043178081512451,39.02411651611328,,,,,,,,,,,,,,,,2779096485
-5.587848341369629,-8.290182341003417,8.979205812072754,1.1100329120126147,1.278593697309154,1.9190760188253193,30.100000381469727,51112,,,,-8.531933784484863,-5.778076171875,9.917236328125,0.8024107813835144,1.0522154569625854,1.7971018552780151,39.11823654174805,,,,,,,,,,,,,,,,2779096485
-4.743265309906006,-7.763596419525146,9.465844202423096,1.0664958477589166,1.2591812637825064,2.0902810168026105,30.100000381469727,51113,,,,-8.3740234375,-6.668115139007568,9.673192977905273,0.8953551650047302,1.1622040271759033,1.6338499784469604,39.02411651611328,,,,,,,,,,,,,,,,2779096485
-4.152899124908447,-7.237534622192382,10.076668425750732,1.014939672622963,1.2365185819837108,2.2704911743647878,30.100000381469727,51114,2.8499999046325684,-5.25,-68.8499984741211,-7.804589748382568,-7.574902534484863,9.120508193969727,0.9752500057220459,1.2202609777450562,1.5781899690628052,39.02411651611328,,,,,,,,,,,,,,,,2779096485
-3.6829420135498045,-6.90312173461914,10.962542346191405,0.9573954064487287,1.2085526210425341,2.4566313993433946,30.200000762939453,51115,,,,-6.113037109375,-7.907470703125,9.290380477905273,1.0386332273483276,1.2479578256607056,1.616539478302002,39.02411651611328,,,,,,,,,,,,,,,,2779096485
-3.6003478614807127,-6.7796430580139155,11.236552991485595,0.9063865109130252,1.178573676515741,2.6401268324037166,30.200000762939453,51116,,,,-4.861718654632568,-7.797411918640137,9.065478324890137,1.0631343126296997,1.2713936567306519,1.7038911581039429,39.02411651611328,,,,,,,,,,,,,,,,2779096485
-3.9297311012268064,-7.126767750549316,11.264047789001465,0.8418620729380518,1.144251136254587,2.832196578850733,30.200000762939453,51117,,,,-4.002783298492432,-6.768603324890137,9.309521675109863,1.0522154569625854,1.2516862154006958,1.8421093225479126,39.02411651611328,,,,,,,,,,,,,,,,2779096485
-4.280341481018066,-7.582761215209961,11.12345458984375,0.7560379656587211,1.104838043499563,3.0449107571099088,30.100000381469727,51118,3.0,-5.099999904632568,-67.6500015258789,-2.873486280441284,-6.378613471984863,9.788037300109863,1.0165290832519531,1.2370388507843018,1.9997684955596924,39.02411651611328,,,,,,,,,,,,,,,,2779096485
-4.558209074401855,-7.940698566436767,10.965175714874267,0.6572291305470442,1.0601743955334764,3.26393710647819,30.0,51119,,,,-2.3255858421325684,-5.835497856140137,11.261865615844727,0.9656625986099243,1.2144019603729248,2.174471855163574,39.02411651611328,,,,,,,,,,,,,,,,2779096485
-4.762247277069092,-8.1115481590271,10.945285913848876,0.5628267550868276,1.0079146398739698,3.480535065738977,30.0,51120,,,,-1.9595215320587158,-5.481396675109863,11.927001953125,0.9094699025154114,1.185906171798706,2.357963800430298,39.11823654174805,,,,,,,,,,,,,,,,2779096485
-4.807182997131347,-8.16724902267456,11.039605081939698,0.49556670474311904,0.9544860694253788,3.6915208924099856,30.100000381469727,51121,,,,-1.859033226966858,-5.450293064117432,12.230859756469727,0.7978833913803101,1.1262513399124146,2.536928415298462,39.02411651611328,,,,,,,,,,,,,,,,2779096485
-4.5974981979370115,-8.083566845703125,10.989243293762208,0.46765134386230606,0.9028603791275491,3.887240807369396,30.100000381469727,51122,2.549999952316284,-6.599999904632568,-68.25,-2.1461424827575684,-5.778076171875,12.525146484375,0.7174559235572815,1.0876353979110718,2.7180233001708984,39.02411651611328,,,,,,,,,,,,,,,,2779096485
-4.327473288726806,-7.991545524597168,10.87692158279419,0.4677916125559566,0.8597832294751416,4.064807185014496,30.100000381469727,51123,,,,-2.3638672828674316,-6.084326267242432,12.506006240844727,0.6215820908546448,1.046889066696167,3.1284167766571045,39.02411651611328,,,,,,,,,,,,,,,,2779096485
-4.100197395324707,-7.878528694915771,10.71182961730957,0.47538458437721437,0.8351812537575858,4.221542156966489,30.100000381469727,51124,,,,-2.7107911109924316,-6.565234184265137,12.424657821655273,0.521979808807373,1.0034794807434082,3.342268705368042,39.11823654174805,,,,,,,,,,,,,,,,2779096485
-3.948831314086914,-7.768006352233886,10.595617611694335,0.4710640649335405,0.8265857748982735,4.356069867636669,30.0,51125,,,,-2.87109375,-6.536523342132568,12.331347465515137,0.44421544671058655,0.9486184120178223,3.5478646755218506,39.11823654174805,,,,,,,,,,,,,,,,2779096485
-3.8498756660461426,-7.654779237365722,10.600009300994873,0.44015619650910615,0.8465297753748479,4.464688156950617,30.0,51126,3.450000047683716,-7.050000190734863,-67.19999694824219,-2.9859375953674316,-6.4599609375,11.974853515625,0.39894169569015503,0.9004151225090027,3.751596689224243,39.02411651611328,,,,,,,,,,,,,,,,2779096485
-3.760708092498779,-7.453905480957031,10.708470960998534,0.3828575936279379,0.891493954409982,4.5523941137643895,30.0,51127,,,,-2.966796875,-6.462353706359863,11.515478134155273,0.3872237801551819,0.8522118926048279,3.936420202255249,39.11823654174805,,,,,,,,,,,,,,,,2779096485
-3.672101354217529,-7.151772659301757,10.918287875366211,0.29798904185696623,0.961305586034463,4.6121401416968135,30.100000381469727,51128,,,,-2.9596190452575684,-6.376220703125,11.063281059265137,0.39894169569015503,0.8178571462631226,4.103400230407715,39.02411651611328,,,,,,,,,,,,,,,,2779096485
-3.588931936645508,-6.8114696182250976,11.158164356231689,0.1987244000699521,1.0496536842458628,4.648581765880683,30.100000381469727,51129,,,,-3.0098633766174316,-6.407324314117432,10.974756240844727,0.4037353992462158,0.8002802729606628,4.241884708404541,39.02411651611328,,,,,,,,,,,,,,,,2779096485
-3.498370499420166,-6.499130581665039,11.359642500305176,0.08686998389543915,1.151177332438304,4.664462774589224,30.100000381469727,51130,4.199999809265137,-6.900000095367432,-66.9000015258789,-3.1749510765075684,-6.526953220367432,10.883837699890137,0.38642483949661255,0.8077371120452881,4.364123821258545,39.02411651611328,,,,,,,,,,,,,,,,2779096485
-3.3878281936645505,-6.189860998535156,11.507395975494385,-0.03365016532745956,1.259125590400301,4.660149672049135,30.100000381469727,51131,,,,-3.418994188308716,-6.541308403015137,10.914941787719727,0.34248265624046326,0.8319718837738037,4.458399772644043,39.02411651611328,,,,,,,,,,,,,,,,2779096485
-2.912461799621582,-5.596094810485839,11.614108025360107,-0.15527012017817016,1.3619665978485076,4.642730874242917,30.0,51132,,,,-3.6534667015075684,-6.543701171875,11.218798637390137,0.2724415063858032,0.8886972069740295,4.536164283752441,39.11823654174805,,,,,,,,,,,,,,,,2779096485
-2.63132964553833,-5.235766526031494,12.01093150024414,-0.2735861041400124,1.4422279342285258,4.604460996641175,30.0,51133,,,,-3.7994141578674316,-6.402539253234863,11.491552352905273,0.18242661654949188,0.9659289121627808,4.592623233795166,39.02411651611328,,,,,,,,,,,,,,,,2779096485
-2.811142583465576,-5.257183614349365,12.206638970184326,-0.39203966700282256,1.5223345342923713,4.552616054950209,30.200000762939453,51134,4.5,-7.949999809265137,-66.5999984741211,-3.983642578125,-6.258984565734863,11.656641006469727,0.07936223596334457,1.056742787361145,4.616059303283691,39.02411651611328,,,,,,,,,,,,,,,,2779096485
-2.984298583984375,-5.204093016052246,12.245300341033936,-0.5183732238714014,1.5889374895890347,4.492427576095223,30.30000114440918,51135,,,,-4.108056545257568,-6.223095893859863,11.900683403015137,-0.03302321210503578,1.160872459411621,4.628309726715088,39.02411651611328,,,,,,,,,,,,,,,,2779096485
-2.989319857788086,-5.137387078094482,12.314709368896484,-0.6336962342364346,1.633752891130894,4.418408083398307,30.30000114440918,51136,,,,-4.227685451507568,-5.921630859375,12.049023628234863,-0.15073497593402863,1.2642030715942383,4.61472749710083,39.02411651611328,,,,,,,,,,,,,,,,2779096485
-2.859039193725586,-5.072320429992676,12.429080995941161,-0.7293388504656807,1.6559918107399485,4.325829613745513,30.30000114440918,51137,,,,-4.04345703125,-5.691943168640137,12.305028915405273,-0.26951202750205994,1.3614085912704468,4.593955039978027,39.02411651611328,,,,,,,,,,,,,,,,2779096485
-2.673721569061279,-5.013385398864746,12.236744556427002,-0.8055066685938808,1.6541396421356513,4.221663677006195,30.0,51138,3.9000000953674316,-8.850000381469727,-66.75,-3.6056151390075684,-5.175146579742432,12.750048637390137,-0.38029956817626953,1.4354444742202759,4.551877021789551,39.02411651611328,,,,,,,,,,,,,,,,2779096485
-2.3981318969726564,-5.026307115173339,12.247086849212646,-0.8530236273322698,1.6216157276254466,4.10664803537626,30.0,51139,,,,-3.849658250808716,-5.299560546875,12.941454887390137,-0.4982776641845703,1.5156055688858032,4.497282028198242,38.93000030517578,,,,,,,,,,,,,,,,2779096485
-2.0814215454101563,-5.018094815063477,12.36054843673706,-0.8673622063849672,1.557187849213033,3.9849341907819644,30.0,51140,,,,-4.086523532867432,-5.292382717132568,13.128076553344727,-0.625310480594635,1.5725972652435303,4.442154407501221,39.02411651611328,,,,,,,,,,,,,,,,2779096485
-1.784631201171875,-5.032526734161377,12.550938177490234,-0.8491915582607705,1.471687049687816,3.859196529519001,30.0,51141,,,,-4.246826171875,-5.38330078125,13.23095703125,-0.7270432710647583,1.6125447750091553,4.366520881652832,39.02411651611328,,,,,,,,,,,,,,,,2779096485
-1.41215318069458,-5.126578531646729,12.840814718627929,-0.7995792576806205,1.3726372451044622,3.728597267719508,30.0,51142,4.650000095367432,-9.600000381469727,-66.1500015258789,-4.227685451507568,-5.388085842132568,13.226171493530273,-0.8170581459999084,1.630654215812683,4.273842811584473,39.11823654174805,,,,,,,,,,,,,,,,2779096485
-1.1395381187438964,-5.223144891357422,13.200099876403808,-0.7306707572388007,1.2670462442177328,3.5962331956567755,30.0,51143,,,,-4.000390529632568,-5.380908012390137,13.1591796875,-0.8852351307868958,1.6253279447555542,4.1675825119018555,39.11823654174805,,,,,,,,,,,,,,,,2779096485
-0.9107474243164062,-5.246611671447754,13.488034578704834,-0.6430073577389549,1.1609422585874551,3.464620814122357,30.0,51144,,,,-3.66064453125,-5.380908012390137,12.986913681030273,-0.9283783435821533,1.588576316833496,4.059990882873535,38.93000030517578,,,,,,,,,,,,,,,,2779096485
-0.6765708869934082,-5.27171957321167,13.834301008605957,-0.5384220330519556,1.0544328932367342,3.3361207890376927,30.0,51145,4.949999809265137,-8.25,-66.0,-3.538623094558716,-5.321093559265137,12.781152725219727,-0.9342373013496399,1.5209319591522217,3.943610668182373,39.02411651611328,,,,,,,,,,,,,,,,2779096485
-0.38887843322753907,-5.254530506896972,14.17640924987793,-0.4141343564661322,0.9512912814825507,3.2112535886289426,30.0,51146,,,,-3.107959032058716,-5.270849704742432,12.80029296875,-0.9105351567268372,1.4333139657974243,3.8173768520355225,39.02411651611328,,,,,,,,,,,,,,,,2779096485
-0.24971547241210937,-5.266933594512939,14.46622971496582,-0.2786387864834419,0.8489740911855519,3.088799824678269,30.200000762939453,51147,,,,-2.7945313453674316,-5.347412109375,13.010839462280273,-0.8599351048469543,1.3358421325683594,3.6884796619415283,39.11823654174805,,,,,,,,,,,,,,,,2779096485
-0.07484563827514648,-5.2253929801940915,14.800010550689697,-0.12211385138727707,0.7519265443065978,2.9733955013478117,30.200000762939453,51148,,,,-2.521777391433716,-5.457470893859863,13.104150772094727,-0.7914918065071106,1.2338430881500244,3.5619795322418213,39.02411651611328,,,,,,,,,,,,,,,,2779096485
0.0952761619567871,-5.085654043579101,14.980603356933594,0.0393041428355777,0.6549392181573792,2.8625949978779412,30.200000762939453,51149,5.099999904632568,-9.600000381469727,-65.69999694824219,-2.2920899391174316,-5.388085842132568,13.336230278015137,-0.701210618019104,1.1353060007095337,3.4381425380706787,39.02411651611328,,,,,,,,,,,,,,,,2779096485
0.1643762855529785,-4.844087281036376,15.069270993804931,0.21558216304898392,0.5523453320829255,2.761728824232998,30.200000762939453,51150,,,,-1.902099609375,-5.392870903015137,13.427148818969727,-0.5986788868904114,1.0258500576019287,3.311375856399536,38.93000030517578,,,,,,,,,,,,,,,,2779096485
0.4145226837158203,-4.428997257232666,14.978727014923095,0.39190586979057646,0.4490006809286296,2.6583384732347106,30.200000762939453,51151,,,,-1.72265625,-5.345019340515137,13.685546875,-0.47803762555122375,0.9230520129203796,3.1880714893341064,39.02411651611328,,,,,,,,,,,,,,,,2779096485
0.5688984786987304,-3.9737755111694333,14.85285306854248,0.5660111966488919,0.3398937415054265,2.5431900863411534,30.200000762939453,51152,,,,-1.428369164466858,-5.275634765625,13.786035537719727,-0.34115108847618103,0.8314392566680908,3.069827079772949,39.02411651611328,,,,,,,,,,,,,,,,2779096485
0.7457806205749512,-3.5082694923400877,14.58041999206543,0.7340783983302906,0.23016618568395905,2.4240751673735836,30.100000381469727,51153,6.300000190734863,-9.300000190734863,-66.1500015258789,-1.256103515625,-5.266064643859863,13.939160346984863,-0.1909487247467041,0.7321032881736755,2.9577078819274902,39.11823654174805,,,,,,,,,,,,,,,,2779096485
0.7875524551391602,-3.101009815979004,14.494244150543212,0.896130544467557,0.11952899390891265,2.3041694626731655,30.0,51154,,,,-0.882861316204071,-5.132080078125,14.156885147094727,-0.029294785112142563,0.6367620825767517,2.8498499393463135,39.02411651611328,,,,,,,,,,,,,,,,2779096485
0.8711076385498047,-2.7702185440063474,14.59964278717041,1.0469939320202573,0.02517463524282013,2.186786184297686,30.0,51155,,,,-0.882861316204071,-4.876074314117432,14.28369140625,0.13875074684619904,0.5422198176383972,2.74998140335083,39.11823654174805,,,,,,,,,,,,,,,,2779096485
0.9374409698486328,-2.466920499420166,14.781631887054443,1.1943348230023443,-0.05299907580464264,2.0715345533072793,30.100000381469727,51156,,,,-0.535937488079071,-4.490869045257568,14.240625381469727,0.31052470207214355,0.43755754828453064,2.6549065113067627,39.11823654174805,,,,,,,,,,,,,,,,2779096485
1.0205371520996094,-2.2383879417419434,14.904942896270752,1.3387130604764248,-0.09637605078841355,1.9638724053971262,30.200000762939453,51157,4.5,-10.350000381469727,-65.8499984741211,-0.5263671875,-4.244433403015137,14.231054306030273,0.4759070873260498,0.3331615924835205,2.5427873134613037,39.02411651611328,,,,,,,,,,,,,,,,2779096485
1.2189936195373534,-2.062142225646973,14.816191257476806,1.4760889153864274,-0.11137225752037033,1.8592078050629226,30.200000762939453,51158,,,,-0.3421386778354645,-3.7802734375,13.893701553344727,0.6452842354774475,0.22397194802761078,2.4293365478515625,39.02411651611328,,,,,,,,,,,,,,,,2779096485
1.3535966255187988,-1.9094281135559081,14.764393062591552,1.597484718627629,-0.09120452488215591,1.7592743503201478,30.200000762939453,51159,,,,-0.3182128965854645,-3.4142088890075684,14.039648056030273,0.8016118407249451,0.11877703666687012,2.3124237060546875,39.02411651611328,,,,,,,,,,,,,,,,2779096485
1.5259619163513183,-1.8060873558044432,14.397163162231445,1.6986272751286018,-0.03861095529810745,1.6609251634936544,30.100000381469727,51160,,,,-0.2823242247104645,-3.012255907058716,13.908056259155273,0.9552763104438782,0.022636879235506058,2.1955108642578125,38.93000030517578,,,,,,,,,,,,,,,,2779096485
1.7297974975585937,-1.7438789039611815,13.924921475219726,1.774937485821407,0.03989726209577591,1.5721744685651313,30.100000381469727,51161,4.5,-10.199999809265137,-66.1500015258789,-0.07416991889476776,-2.6629395484924316,13.893701553344727,1.0953586101531982,-0.0596548356115818,2.085522413253784,39.02411651611328,,,,,,,,,,,,,,,,2779096485
1.8934412803649903,-1.5269254524230957,13.21497905807495,1.8176025978506918,0.1408738637145607,1.482918412191628,30.100000381469727,51162,,,,0.02631836012005806,-2.3877930641174316,14.089892387390137,1.2389030456542969,-0.1102549135684967,1.981925368309021,39.02411651611328,,,,,,,,,,,,,,,,2779096485
2.0739212615966798,-1.3201187377929686,12.505930642700195,1.832553104738657,0.24542820252248992,1.3986267610299274,30.0,51163,,,,0.09091796725988388,-2.2418456077575684,14.101855278015137,1.3736591339111328,-0.13156022131443024,1.8743336200714111,39.11823654174805,,,,,,,,,,,,,,,,2779096485
2.113652526092529,-1.1624482879638671,11.892125117492675,1.8188492967853203,0.3491333524752669,1.3226875952534474,30.0,51164,,,,0.26557618379592896,-1.966699242591858,13.750146865844727,1.4932351112365723,-0.11558124423027039,1.7741986513137817,39.11823654174805,,,,,,,,,,,,,,,,2779096485
2.05831010055542,-1.022051990509033,11.331965455627442,1.7841259374670586,0.4536324373488594,1.2563294710120152,30.0,51165,4.949999809265137,-11.850000381469727,-65.8499984741211,0.37324219942092896,-1.930810570716858,13.362548828125,1.608549952507019,-0.07217169553041458,1.68391752243042,39.02411651611328,,,,,,,,,,,,,,,,2779096485
2.0002051071166993,-0.9106717216491699,10.955255001831054,1.7366199043469666,0.54744798526691,1.2072633514781732,30.100000381469727,51166,,,,0.6053222417831421,-1.8757812976837158,12.977343559265137,1.7403764724731445,0.06844326853752136,1.5837825536727905,39.02411651611328,,,,,,,,,,,,,,,,2779096485
1.8605266578674315,-0.7956486404418945,10.590305938720702,1.6749998565736521,0.6290622207871965,1.1728677806825285,30.100000381469727,51167,,,,0.7704101800918579,-1.7489745616912842,12.491650581359863,1.762747049331665,0.19068241119384766,1.4988276958465576,39.02411651611328,,,,,,,,,,,,,,,,2779096485
1.6775733863830566,-0.7478625,10.130133163452149,1.6088714965536872,0.6930120884188367,1.1537618703373398,30.100000381469727,51168,,,,0.906787097454071,-1.658056616783142,12.039453506469727,1.7624807357788086,0.3017362952232361,1.335575819015503,39.02411651611328,,,,,,,,,,,,,,,,2779096485
1.4517021606445313,-0.7305264022827148,9.713497646331787,1.5334189435682426,0.7253555604506233,1.1586205813441064,30.200000762939453,51169,5.099999904632568,-13.050000190734863,-65.25,1.1699707508087158,-1.4020507335662842,11.568115234375,1.7374470233917236,0.39840906858444214,1.2689968347549438,39.02411651611328,,,,,,,,,,,,,,,,2779096485
1.2941640129089356,-0.7294876121520996,9.22010897064209,1.4582997251383467,0.7317384518019896,1.1782414138825235,30.200000762939453,51170,,,,1.088623046875,-1.239355444908142,11.414990425109863,1.6948364973068237,0.49721238017082214,1.210939884185791,39.02411651611328,,,,,,,,,,,,,,,,2779096485
1.217489510345459,-0.6865468162536621,8.705853985595702,1.3744258640276839,0.7131379295333921,1.2156390263384265,30.200000762939453,51171,,,,1.26806640625,-1.0312011241912842,11.163769721984863,1.6418395042419434,0.5787051320075989,1.165666103363037,39.02411651611328,,,,,,,,,,,,,,,,2779096485
1.2509501266479492,-0.567803500366211,8.233467809295654,1.2825060007658433,0.6661155198060321,1.267019279711881,30.200000762939453,51172,,,,1.3972656726837158,-0.9402831792831421,11.065673828125,1.5784562826156616,0.65034419298172,1.136371374130249,38.93000030517578,,,,,,,,,,,,,,,,2779096485
1.3566028999328612,-0.36479373245239255,7.870038855743408,1.1792124157250987,0.5987175177188055,1.3182381588401915,30.100000381469727,51173,5.099999904632568,-13.199999809265137,-65.69999694824219,1.4092285633087158,-0.768017590045929,10.709179878234863,1.5102792978286743,0.6996127367019653,1.1257187128067017,39.02411651611328,,,,,,,,,,,,,,,,2779096485
1.493309617614746,-0.09828467941284179,7.698438778686524,1.0636463852543632,0.525728967962288,1.3748647862618262,30.100000381469727,51174,,,,1.4570801258087158,-0.6531738042831421,10.632616996765137,1.4346455335617065,0.717189610004425,1.1385018825531006,39.02411651611328,,,,,,,,,,,,,,,,2779096485
1.6667005393981933,0.18627521667480468,7.769447955322265,0.9418410943667649,0.45134109351011825,1.4282638289120337,30.100000381469727,51175,,,,1.562353491783142,-0.576611340045929,10.276123046875,1.359544277191162,0.7131948471069336,1.1677966117858887,39.02411651611328,,,,,,,,,,,,,,,,2779096485
1.7989470428466796,0.44573251953125,8.070361459350586,0.8141358098091404,0.38823353046225983,1.4756620239824267,30.0,51176,,,,1.626953125,-0.3899902403354645,10.197168350219727,1.2740567922592163,0.6769758462905884,1.2112061977386475,39.02411651611328,,,,,,,,,,,,,,,,2779096485
1.8402421188354492,0.626518302154541,8.474163598632812,0.6787944102208953,0.3391581764174016,1.5205907230541822,30.0,51177,4.949999809265137,-14.850000381469727,-64.6500015258789,1.8805663585662842,-0.26557618379592896,9.795214653015137,1.1805797815322876,0.6245115399360657,1.2578115463256836,39.02411651611328,,,,,,,,,,,,,,,,2779096485
1.8307968185424803,0.7239009422302246,9.003388272094726,0.5477687497022001,0.31152737429710803,1.5636202154392103,30.0,51178,,,,2.021728515625,-0.15073242783546448,9.651659965515137,1.073786973953247,0.5526061654090881,1.3169337511062622,39.02411651611328,,,,,,,,,,,,,,,,2779096485
1.788294088745117,0.7337235221862792,9.550262620544434,0.4178920700805074,0.3075837720399228,1.6093692679896132,30.0,51179,,,,2.174853563308716,0.16269531846046448,9.577489852905273,0.9611352682113647,0.479369193315506,1.365136981010437,39.02411651611328,,,,,,,,,,,,,,,,2779096485
1.7892178482055663,0.7025286026000976,10.015041931152343,0.2887403428499684,0.32223874794375273,1.6508829490137098,30.0,51180,,,,2.237060546875,0.346923828125,9.735400199890137,0.8375645279884338,0.4119912087917328,1.422661304473877,39.02411651611328,,,,,,,,,,,,,,,,2779096485
1.8887744819641112,0.6815798240661621,10.372876289367676,0.16139534403793931,0.3459416271676712,1.6911812432194793,30.0,51181,4.199999809265137,-14.399999618530273,-65.0999984741211,2.306445360183716,0.571826159954071,9.986620903015137,0.7105317115783691,0.35207003355026245,1.4644728899002075,39.11823654174805,,,,,,,,,,,,,,,,2779096485
2.0907207489013673,0.7256874877929688,10.66550721130371,0.041709030546614075,0.37684793764287855,1.7234579431452937,30.0,51182,,,,2.335156202316284,0.7584472894668579,10.199560165405273,0.5789714455604553,0.3094594478607178,1.5126761198043823,39.02411651611328,,,,,,,,,,,,,,,,2779096485
2.3737876388549806,0.8283675201416015,11.015008294677735,-0.06532135563618942,0.4062469655304868,1.7455527324771436,30.0,51183,,,,2.2179198265075684,0.8924316167831421,10.603906631469727,0.45087337493896484,0.2945457398891449,1.5494277477264404,39.02411651611328,,,,,,,,,,,,,,,,2779096485
2.6634922134399415,0.9905161659240722,11.436340853881836,-0.14615029819333833,0.4261095864626103,1.750020438175352,30.0,51184,,,,2.167675733566284,0.83740234375,10.867090225219727,0.3270363211631775,0.29481205344200134,1.5936362743377686,39.02411651611328,,,,,,,,,,,,,,,,2779096485
2.922481393432617,1.2095717964172363,11.85138085784912,-0.19676720305088685,0.4367299332638217,1.7393818953261175,30.0,51185,5.550000190734863,-14.550000190734863,-64.94999694824219,2.143749952316284,0.825439453125,11.254687309265137,0.20106874406337738,0.3121226131916046,1.6413068771362305,39.11823654174805,,,,,,,,,,,,,,,,2779096485
2.9714818794250486,1.5095867752075194,12.166629082489013,-0.20859530005605195,0.42798202838056626,1.713371160664813,30.0,51186,,,,2.043261766433716,0.7704101800918579,11.589648246765137,0.08042749762535095,0.3416837155818939,1.6751290559768677,39.02411651611328,,,,,,,,,,,,,,,,2779096485
3.0596316352844237,1.8720493888854979,12.133838163757323,-0.18650768794329056,0.39199309497357987,1.686431755106169,30.0,51187,,,,2.1246094703674316,0.751269519329071,11.797802925109863,-0.03275689482688904,0.3728426992893219,1.7076196670532227,39.02411651611328,,,,,,,,,,,,,,,,2779096485
3.379615295410156,2.4674692970275878,11.832349506378174,-0.15637838134238494,0.31937829324187544,1.6438339944203892,30.100000381469727,51188,,,,2.2896971702575684,0.8326171636581421,11.922216415405273,-0.13182653486728668,0.39894169569015503,1.725462794303894,39.11823654174805,,,,,,,,,,,,,,,,2779096485
