adisAccelX,adisAccelY,adisAccelZ,adisGyroX,adisGyroY,adisGyroZ,adisTemp,adisDataCNT,lsmMagX,lsmMagY,lsmMagZ,mpuAccelX,mpuAccelY,mpuAccelZ,mpuGyroX,mpuGyroY,mpuGyroZ,mpuTemp,year,month,day,hour,min,sec,fixType,fLon,fLat,height,hMSL,hAcc,vAcc,gSpeed,headMot,padding
3.225959555100295,2.012220865912883,9.047724107182992,-0.00033966404608228593,0.001709034526877355,7.957265624266218e-05,27.5,36430,,,,3.2537758350372314,2.052342176437378,8.899807929992676,-0.00292770192027092,-0.0012934091500937939,-0.0047928038984537125,36.012351989746094,,,,,,,,,,,,,,,,2779096485
3.2279737577932437,2.020723383901832,9.045157259031193,-7.493251974225899e-05,0.000633896428492803,0.00017298303083525257,27.5,36431,,,,3.196253538131714,2.0811543464660645,8.928322792053223,-0.0010634884238243103,-0.0012934091500937939,-0.0018633250147104263,35.918235778808594,,,,,,,,,,,,,,,,2779096485
3.2240365264611697,2.0180927887767384,9.043458667759825,-0.0001625771506144516,0.000726527828471899,0.0005351929103050096,27.5,36432,-20.399999618530273,-21.75,-56.849998474121094,3.2226178646087646,2.0547430515289307,8.880797386169434,-0.002128753811120987,-0.0004944605752825737,-0.0007980605587363243,36.012351989746094,,,,,,,,,,,,,,,,2779096485
3.2229444190472933,2.018529239977362,9.041353278394128,-0.00032725371548780356,0.0010026177367830546,-0.0007321055752136365,27.5,36433,,,,3.2585694789886475,2.1051645278930664,8.921195030212402,-0.0005308538675308228,-0.00022814422845840454,0.0010661538690328598,36.012351989746094,,,,,,,,,,,,,,,,2779096485
3.225895333278045,2.0184835574619733,9.050042684455216,0.0012600235728048906,0.0002336632668207446,0.00044368003797606056,27.5,36434,,,,3.169888973236084,2.004321575164795,8.864163398742676,-0.003460332751274109,-0.0004944605752825737,-0.0047928038984537125,35.918235778808594,,,,,,,,,,,,,,,,2779096485
3.2264282099230837,2.0158937102434047,9.049669325403354,0.00021651717005037423,-0.0008518411860357006,-0.0005450118520185987,27.5,36435,,,,3.2441890239715576,2.083555221557617,8.94970989227295,0.0013333596289157867,-0.0012934091500937939,-0.0015970086678862572,36.012351989746094,,,,,,,,,,,,,,,,2779096485
3.2234746415890845,2.016179095122682,9.05003849990465,0.0005471885645276079,-5.1448099621057876e-05,0.0018041625293961961,27.5,36436,-19.5,-21.0,-56.54999923706055,3.2250146865844727,2.0931594371795654,8.968720436096191,-0.0018624365329742432,0.001369753386825323,-0.0007980605587363243,35.82411575317383,,,,,,,,,,,,,,,,2779096485
3.2256106339775457,2.0119843037546348,9.053242072259573,0.0016897911907629594,0.0008460904447893424,-0.0003754350707731763,27.399999618530273,36437,,,,3.2274115085601807,2.0451390743255615,8.873668670654297,-0.0013298019766807556,-0.001559725496917963,8.884817361831665e-07,35.82411575317383,,,,,,,,,,,,,,,,2779096485
3.22597940480205,2.017604112965642,9.048908745975883,0.00030237748300447577,-0.0005698324022425181,0.00099317006191588,27.399999618530273,36438,,,,3.2417919635772705,2.073951244354248,8.899807929992676,-0.0013298019766807556,-0.0004944605752825737,0.0007998375222086906,36.012351989746094,,,,,,,,,,,,,,,,2779096485
3.2265191596864913,2.011093831155162,9.045657649082385,0.0011802552408024798,0.0014076845358003886,-0.0007364398698579541,27.5,36439,,,,3.162698745727539,2.0187277793884277,8.897431373596191,-0.00292770192027092,-0.0026249901857227087,-0.0015970086678862572,36.012351989746094,,,,,,,,,,,,,,,,2779096485
3.2276482002554223,2.0130588148346793,9.048067240329424,0.002329742138408376,0.0012695263972992603,0.0008009763852683885,27.5,36440,-20.399999618530273,-21.600000381469727,-56.54999923706055,3.2298080921173096,2.07635235786438,8.975849151611328,-0.003460332751274109,-0.002092357724905014,8.884817361831665e-07,36.012351989746094,,,,,,,,,,,,,,,,2779096485
3.229501960537953,2.0170754742994315,9.04764142494725,0.0015513600782519732,-0.0010681963915068924,0.00017798977365019396,27.5,36441,,,,3.155508279800415,2.0355348587036133,8.897431373596191,0.001599673181772232,-0.001559725496917963,-0.0018633250147104263,35.918235778808594,,,,,,,,,,,,,,,,2779096485
3.2253076550081987,2.016968370857051,9.047682710022032,0.0015437234638786517,-0.0002656061972080336,0.0007180588652986009,27.5,36442,,,,3.208237409591675,2.0235297679901123,8.904560089111328,-0.00026454031467437744,-0.0012934091500937939,-0.0018633250147104263,35.918235778808594,,,,,,,,,,,,,,,,2779096485
3.2275056636964936,2.0137287253713105,9.049237756264153,-0.0002221587216927898,4.3007565692204305e-05,-0.000727744648958601,27.399999618530273,36443,,,,3.2585694789886475,1.997118353843689,8.916441917419434,-0.0015961192548274994,0.0003044884651899338,-0.0005317442119121552,35.918235778808594,,,,,,,,,,,,,,,,2779096485
3.2298749928803483,2.0105873608454363,9.048054611953608,-0.00013709735706022175,0.00059481453976447,0.0009000526350411851,27.399999618530273,36444,-19.799999237060547,-20.700000762939453,-56.70000076293945,3.2441890239715576,2.0355348587036133,8.871292114257812,-0.0013298019766807556,-0.00022814422845840454,-0.0015970086678862572,36.012351989746094,,,,,,,,,,,,,,,,2779096485
3.2261896770664023,2.018372865213147,9.047282039305315,0.0022948680441734516,0.0011898113285182853,-0.0011942172843884412,27.399999618530273,36445,,,,3.172285795211792,2.0571441650390625,8.859410285949707,-0.0023950673639774323,-0.0004944605752825737,-0.0015970086678862572,36.012351989746094,,,,,,,,,,,,,,,,2779096485
3.2246438301423552,2.0105656037063557,9.04356006838694,0.0002738283963150223,0.0006387833290595136,0.0007150960986062487,27.5,36446,,,,3.2369985580444336,1.9827121496200562,8.847529411315918,-0.0018624365329742432,-0.0018260413780808449,-0.0015970086678862572,35.918235778808594,,,,,,,,,,,,,,,,2779096485
3.2247388171332387,2.0142540742982793,9.050887216428423,0.0021043588169038594,0.0011809097126358687,0.0009785027023130662,27.5,36447,,,,3.201046943664551,2.028331995010376,8.895054817199707,1.776963472366333e-06,-0.003690255107358098,0.002397734671831131,35.918235778808594,,,,,,,,,,,,,,,,2779096485
3.2299817924997716,2.017451177474272,9.054664595279743,0.0009714301232617386,0.0007314080711359307,0.0009840154457316454,27.5,36448,-19.200000762939453,-21.149999618530273,-56.849998474121094,3.2250146865844727,2.0571441650390625,8.916441917419434,1.776963472366333e-06,0.0024350183084607124,-0.0031949058175086975,35.918235778808594,,,,,,,,,,,,,,,,2779096485
3.227104707197392,2.010052180084141,9.049049302040439,0.001216447599767934,-0.0002966653132076367,0.0001699270535053881,27.5,36449,,,,3.2178242206573486,2.0307328701019287,8.91406536102295,0.0005344115197658539,-0.004222887568175793,0.0005335211753845215,36.012351989746094,,,,,,,,,,,,,,,,2779096485
3.226838287565741,2.0176599263825614,9.051710452028214,0.0009501181767848405,-0.0003132634645874894,-0.0007351149472247451,27.399999618530273,36450,,,,3.16030216217041,2.0211286544799805,8.87842082977295,-0.0031940191984176636,-0.0012934091500937939,-0.000265427865087986,35.918235778808594,,,,,,,,,,,,,,,,2779096485
3.226887556693637,2.01764351506975,9.047968604494647,0.00112391606832903,-0.00021431371496560218,0.0003506158743228013,27.399999618530273,36451,,,,3.198650360107422,2.0355348587036133,8.780993461608887,-0.0007971711456775665,-0.004489203914999962,-0.004260171204805374,36.012351989746094,,,,,,,,,,,,,,,,2779096485
3.226224591607719,2.018654549135776,9.047055849402387,0.00173463882321169,-0.0001293522188732252,-0.0002857065163623181,27.399999618530273,36452,-19.5,-21.299999237060547,-56.70000076293945,3.2250146865844727,2.0691492557525635,8.87842082977295,0.0021323077380657196,0.0003044884651899338,0.0007998375222086906,36.012351989746094,,,,,,,,,,,,,,,,2779096485
3.2298488256652287,2.020229661331671,9.046195027571619,0.0006033346578233536,-0.0011191959260314285,-0.0005499653316121044,27.399999618530273,36453,,,,3.191459894180298,2.0595450401306152,8.876045227050781,-0.00292770192027092,-0.0007607764564454556,-0.0005317442119121552,35.918235778808594,,,,,,,,,,,,,,,,2779096485
3.2302505297990476,2.0195121991096268,9.050257964637025,0.000685273466099263,0.0006797826937595267,7.732894303968973e-05,27.399999618530273,36454,,,,3.2322051525115967,2.0427379608154297,8.906936645507812,-0.0018624365329742432,3.817211836576462e-05,-0.0018633250147104263,35.918235778808594,,,,,,,,,,,,,,,,2779096485
3.2298093505521344,2.015501296688549,9.04836639833285,0.0005904383003332721,-6.468401014779208e-05,-0.0010073166403711076,27.399999618530273,36455,,,,3.2393951416015625,2.0091235637664795,8.947334289550781,-0.00292770192027092,0.0005708043463528156,-0.0015970086678862572,35.918235778808594,,,,,,,,,,,,,,,,2779096485
3.2308410864625565,2.0152808093925083,9.05002900994176,0.0021460439455798543,-0.00017961272620034292,-0.0010136682795272964,27.30000114440918,36456,-19.799999237060547,-20.549999237060547,-56.70000076293945,3.196253538131714,2.049940824508667,8.906936645507812,0.0002680942416191101,-0.0007607764564454556,0.0007998375222086906,36.10647201538086,,,,,,,,,,,,,,,,2779096485
3.23123030509659,2.0149774430975995,9.049343191993598,4.84517327131854e-05,0.000992537672126378,-1.4370350564283426e-05,27.30000114440918,36457,,,,3.201046943664551,2.049940824508667,8.982978820800781,-0.0045255981385707855,-0.0007607764564454556,0.002131418325006962,35.918235778808594,,,,,,,,,,,,,,,,2779096485
3.227747299237253,2.015818121007631,9.045693591382785,0.0022745547830984696,0.0011586723176865285,-0.0006524970328755323,27.399999618530273,36458,,,,3.2154276371002197,2.0547430515289307,8.854657173156738,-0.0015961192548274994,-0.00022814422845840454,-0.0023959577083587646,35.918235778808594,,,,,,,,,,,,,,,,2779096485
3.2257058826405807,2.0148923210947025,9.041261293005789,-0.00013441422228040612,-0.0002206387225110731,-9.321989199693147e-05,27.399999618530273,36459,,,,3.2753467559814453,2.088357448577881,8.956838607788086,0.001067042350769043,3.817211836576462e-05,-0.001330692321062088,35.918235778808594,,,,,,,,,,,,,,,,2779096485
3.2290713977040313,2.014462337222363,9.047189231951686,0.0003886106385086259,-0.00021103136894463654,0.0009916121126888901,27.399999618530273,36460,-19.799999237060547,-20.850000381469727,-56.400001525878906,3.2178242206573486,2.0331337451934814,8.956838607788086,0.0005344115197658539,0.001369753386825323,0.002664050552994013,35.918235778808594,,,,,,,,,,,,,,,,2779096485
3.226591941926259,2.0156402134047386,9.044084631690064,0.0014366843625012408,-0.0004866352503601944,8.336766076994483e-05,27.399999618530273,36461,,,,3.2369985580444336,2.07635235786438,8.933075904846191,-0.0015961192548274994,0.0008371206931769848,-0.0007980605587363243,36.012351989746094,,,,,,,,,,,,,,,,2779096485
3.2239440440465907,2.0190890190161745,9.052783303541691,0.0005616628449527177,0.0003256954555586906,0.0008080137884005601,27.399999618530273,36462,,,,3.2705533504486084,2.0451390743255615,8.899807929992676,0.001599673181772232,-0.00022814422845840454,0.0007998375222086906,35.918235778808594,,,,,,,,,,,,,,,,2779096485
3.2284865978278483,2.0131631892888238,9.04486661957713,0.00029603915965364545,0.0018416399745438275,-0.00019252251046082908,27.399999618530273,36463,-19.200000762939453,-20.700000762939453,-56.400001525878906,3.2058403491973877,2.0091235637664795,8.940204620361328,-0.0015961192548274994,-0.001559725496917963,-0.0029285894706845284,35.918235778808594,,,,,,,,,,,,,,,,2779096485
3.2290522582552583,2.0153050338360203,9.04992637636671,0.000389569376494466,-0.00023074541877846771,-0.001362808696037306,27.399999618530273,36464,,,,3.2369985580444336,2.028331995010376,8.909313201904297,0.0005344115197658539,-0.0012934091500937939,0.0002672048285603523,35.918235778808594,,,,,,,,,,,,,,,,2779096485
3.223117010521874,2.0200259591824463,9.047475537406946,0.0018702136954731952,0.0006674788896079151,-0.0013711111006785718,27.399999618530273,36465,,,,3.2609663009643555,2.0427379608154297,8.833271026611328,-0.003460332751274109,-0.0010270928032696247,-0.0018633250147104263,36.012351989746094,,,,,,,,,,,,,,,,2779096485
3.228314417552362,2.0127544391879577,9.048368640056369,0.00108587947032137,-2.7206675965204923e-05,0.0014413268070745714,27.399999618530273,36466,,,,3.2058403491973877,2.061946153640747,8.830894470214844,-0.002128753811120987,-0.002092357724905014,-0.0023959577083587646,36.10647201538086,,,,,,,,,,,,,,,,2779096485
3.2267033768809323,2.0184682676511763,9.046662576373278,0.0004445370210159503,0.00018667178970923314,0.0012589601947819383,27.399999618530273,36467,-19.799999237060547,-20.850000381469727,-55.95000076293945,3.2274115085601807,2.0571441650390625,8.892678260803223,0.0026649385690689087,-0.005288152489811182,-0.0034612221643328667,36.012351989746094,,,,,,,,,,,,,,,,2779096485
3.223095291733325,2.019259300405368,9.05018055045155,0.0023636308630467424,0.0003607359973606004,0.00043667592435728633,27.5,36468,,,,3.148318290710449,2.0571441650390625,8.87842082977295,-0.0023950673639774323,-0.002891306299716234,0.0002672048285603523,35.918235778808594,,,,,,,,,,,,,,,,2779096485
3.22297552065155,2.020236352960357,9.049502503811585,0.0015846029863304338,-7.889863236840329e-05,0.0005319438537974412,27.5,36469,,,,3.167492151260376,2.016326665878296,8.873668670654297,-0.0031940191984176636,0.0008371206931769848,0.0018651019781827927,35.918235778808594,,,,,,,,,,,,,,,,2779096485
3.2241115142233547,2.0173083355010317,9.049392808807456,0.001579949112357503,0.0015376001907843684,0.0007979536974519212,27.5,36470,,,,3.2393951416015625,2.0571441650390625,8.845152854919434,-0.0013298019766807556,0.0021687019616365433,-0.0029285894706845284,35.918235778808594,,,,,,,,,,,,,,,,2779096485
3.2229371296087956,2.015783503978785,9.051498646517857,0.0011337497905865679,-0.00027964771395897967,0.0011667415847689683,27.5,36471,-19.799999237060547,-21.0,-56.099998474121094,3.2154276371002197,2.0331337451934814,8.902183532714844,-0.0005308538675308228,-0.0026249901857227087,-0.000265427865087986,36.012351989746094,,,,,,,,,,,,,,,,2779096485
3.2278999662466066,2.0166477334311197,9.044545044338529,0.0007747290465002642,4.3014223594884e-05,-0.001007429824716658,27.399999618530273,36472,,,,3.2346017360687256,2.016326665878296,8.902183532714844,-0.0007971711456775665,-0.0007607764564454556,-0.003993854857981205,35.918235778808594,,,,,,,,,,,,,,,,2779096485
3.2266484257291816,2.0147951242534505,9.052168735039334,-0.00010078515584653744,0.0012878223138623702,-0.0021859984412263625,27.399999618530273,36473,,,,3.2441890239715576,2.0355348587036133,8.971096992492676,-0.0018624365329742432,-0.0004944605752825737,-0.0029285894706845284,36.012351989746094,,,,,,,,,,,,,,,,2779096485
3.224122504453705,2.0161662726163168,9.053933008809766,0.0018345806003328142,-0.0010982168746885021,-0.0002817317484626906,27.5,36474,,,,3.2705533504486084,2.061946153640747,8.902183532714844,-0.0010634884238243103,-0.0007607764564454556,-0.0010643759742379189,36.012351989746094,,,,,,,,,,,,,,,,2779096485
3.226698891072626,2.0156484377528443,9.058997547942848,0.0006228556284794818,0.000722732823944615,-1.0868293754896525e-05,27.5,36475,-19.5,-20.700000762939453,-56.54999923706055,3.2489824295043945,2.0547430515289307,8.921195030212402,-0.003460332751274109,-0.0018260413780808449,-0.0018633250147104263,36.012351989746094,,,,,,,,,,,,,,,,2779096485
3.2266843495773667,2.016707958089296,9.052767947735596,0.0012338779889827167,0.00037901194021567296,0.0017088013893185288,27.5,36476,,,,3.2633628845214844,1.9875141382217407,9.011493682861328,0.001067042350769043,-0.003690255107358098,-0.000265427865087986,35.918235778808594,,,,,,,,,,,,,,,,2779096485
3.225263245505968,2.019402179762009,9.049455166083304,-0.00031153440726163764,0.0006830983292938899,0.0007192972351969774,27.5,36477,,,,3.193856716156006,2.049940824508667,8.940204620361328,-0.00026454031467437744,0.001636069267988205,-0.0023959577083587646,35.918235778808594,,,,,,,,,,,,,,,,2779096485
3.2278822473037976,2.0133492838564218,9.053694863048076,0.0012336849098050127,0.0007210483745667155,-0.00028466122564164585,27.30000114440918,36478,,,,3.203443765640259,2.0427379608154297,8.871292114257812,0.0002680942416191101,-0.004755519796162844,-0.004260171204805374,35.918235778808594,,,,,,,,,,,,,,,,2779096485
3.2289165625539957,2.0169156976457727,9.052229037401958,0.0014929369822398576,0.0017017108339299663,-0.0010134618845442337,27.30000114440918,36479,-19.799999237060547,-21.149999618530273,-56.400001525878906,3.2561726570129395,2.0475399494171143,8.925946235656738,-0.00292770192027092,-0.001559725496917963,0.0002672048285603523,35.918235778808594,,,,,,,,,,,,,,,,2779096485
3.2273913503481575,2.024095067558074,9.048267426239548,0.00018822774156541933,0.00035146153892813645,-0.0014569714136326733,27.30000114440918,36480,,,,3.210634231567383,2.0547430515289307,8.904560089111328,-0.0018624365329742432,0.0008371206931769848,-0.0018633250147104263,36.012351989746094,,,,,,,,,,,,,,,,2779096485
3.2234482500835497,2.0180976112354005,9.049571436809751,0.0022223235365782367,-0.0005793465451714433,-0.0003718264875209182,27.399999618530273,36481,,,,3.155508279800415,2.0475399494171143,8.885550498962402,-0.0013298019766807556,3.817211836576462e-05,0.0010661538690328598,35.918235778808594,,,,,,,,,,,,,,,,2779096485
3.2252909827539944,2.0190085699383378,9.04894988160243,0.0010781296716024982,0.0011183254274491012,7.852070761931004e-05,27.399999618530273,36482,,,,3.2154276371002197,2.0931594371795654,8.933075904846191,0.0026649385690689087,-0.002092357724905014,0.0015987856313586235,35.918235778808594,,,,,,,,,,,,,,,,2779096485
3.226554111609544,2.0193833759115667,9.046310849953363,0.001407915565023366,0.000726527828471899,0.000348611845616289,27.399999618530273,36483,-19.5,-20.399999618530273,-56.70000076293945,3.2681565284729004,1.9875141382217407,8.904560089111328,-0.0018624365329742432,0.0037665991112589836,-0.0010643759742379189,35.82411575317383,,,,,,,,,,,,,,,,2779096485
3.2304112338816164,2.019567190091735,9.04345638867425,0.0006938421868477066,-0.0005684875059012709,-9.89723199119703e-05,27.399999618530273,36484,,,,3.2154276371002197,2.088357448577881,8.980602264404297,-0.0013298019766807556,-0.004489203914999962,-0.006657016463577747,36.012351989746094,,,,,,,,,,,,,,,,2779096485
3.2277981010163206,2.0196535083634473,9.047325155120971,0.002433691972942525,-0.0004889055951738846,-0.00046798657592011855,27.30000114440918,36485,,,,3.2250146865844727,2.0331337451934814,8.890301704406738,-0.0013298019766807556,-0.00022814422845840454,0.0018651019781827927,35.918235778808594,,,,,,,,,,,,,,,,2779096485
3.2223620489839426,2.020044800416289,9.045411096857505,0.00016365342277559376,0.00021874956481879142,-0.0013681483339862198,27.30000114440918,36486,,,,3.167492151260376,2.0787534713745117,8.847529411315918,0.0013333596289157867,-0.0004944605752825737,0.0015987856313586235,36.012351989746094,,,,,,,,,,,,,,,,2779096485
3.2275763525590517,2.017066539666716,9.046864630386333,-0.0009707799568720809,5.345381499625122e-05,0.0004475149899194201,27.30000114440918,36487,-19.5,-20.700000762939453,-56.849998474121094,3.289727210998535,2.0811543464660645,8.944957733154297,-0.0031940191984176636,3.817211836576462e-05,-0.0029285894706845284,36.012351989746094,,,,,,,,,,,,,,,,2779096485
3.2243920641511705,2.0151391263046827,9.043832101535804,0.0016446506105963336,0.0007719080931349849,0.0002547886810575731,27.30000114440918,36488,,,,3.2202212810516357,2.073951244354248,8.847529411315918,-0.0013298019766807556,-0.0012934091500937939,-0.0031949058175086975,35.918235778808594,,,,,,,,,,,,,,,,2779096485
3.2283671631816957,2.015647951768638,9.050684751432723,0.0005152905527903949,-0.0009338598891437634,0.0001741415059014757,27.30000114440918,36489,,,,3.2154276371002197,2.0355348587036133,8.91406536102295,0.0021323077380657196,-0.00022814422845840454,-0.0034612221643328667,35.918235778808594,,,,,,,,,,,,,,,,2779096485
3.224182165704177,2.018860195221826,9.05044507382663,0.00043630785330415816,-0.0002065705741494091,-0.0007327913391896191,27.399999618530273,36490,,,,3.2393951416015625,2.0331337451934814,8.937828063964844,0.0005344115197658539,0.001636069267988205,-0.005325435660779476,36.012351989746094,,,,,,,,,,,,,,,,2779096485
3.2273750892930475,2.0150965092281337,9.043313291989707,0.00010298661356050601,-0.0005347918604406083,-0.00018575808133851476,27.399999618530273,36491,-19.5,-20.700000762939453,-56.849998474121094,3.2178242206573486,2.0427379608154297,8.899807929992676,-0.0005308538675308228,-0.0039565712213516235,-0.000265427865087986,36.012351989746094,,,,,,,,,,,,,,,,2779096485
3.227483944907944,2.0160822347320337,9.04836722029814,0.0016727935652223406,-0.0003516396156318007,7.98123407391221e-05,27.399999618530273,36492,,,,3.2609663009643555,2.0811543464660645,8.868915557861328,-0.0013298019766807556,-0.003690255107358098,-0.0029285894706845284,35.918235778808594,,,,,,,,,,,,,,,,2779096485
3.2285621089343355,2.0162100859616814,9.045602353235616,0.0010658857885750017,0.00027306473487769076,-0.0012781800950789016,27.5,36493,,,,3.2393951416015625,2.0307328701019287,8.933075904846191,-0.0007971711456775665,-0.0010270928032696247,-0.0031949058175086975,35.918235778808594,,,,,,,,,,,,,,,,2779096485
3.2272346087295922,2.011402991877145,9.052223619903456,0.001090952792163106,-0.0015676722505187325,-0.00045498369198716587,27.5,36494,,,,3.2441890239715576,2.040337085723877,9.063772201538086,-0.0037266500294208527,0.0003044884651899338,0.0005335211753845215,35.918235778808594,,,,,,,,,,,,,,,,2779096485
3.2294325800361507,2.016020963338644,9.05450763727145,0.0005466226427998551,-0.001334838735915919,-0.00045571606128190457,27.5,36495,-19.799999237060547,-20.25,-56.54999923706055,3.2274115085601807,2.013925552368164,8.883173942565918,-0.0013298019766807556,0.0005708043463528156,-0.001330692321062088,35.918235778808594,,,,,,,,,,,,,,,,2779096485
3.2261256047710956,2.017434018493451,9.046597118046565,0.00036116010576128094,0.0008060897654912471,-0.0007347088151612989,27.5,36496,,,,3.203443765640259,2.0355348587036133,8.909313201904297,1.776963472366333e-06,0.0005708043463528156,0.0005335211753845215,36.012351989746094,,,,,,,,,,,,,,,,2779096485
3.2271562939929135,2.017505757238975,9.045690266159566,0.000734914788477193,-0.0001177341786975962,-0.0010103526439929336,27.399999618530273,36497,,,,3.2537758350372314,2.07635235786438,8.80713176727295,-0.0007971711456775665,0.001369753386825323,-0.0005317442119121552,35.82411575317383,,,,,,,,,,,,,,,,2779096485
3.2315201256949053,2.0137527628978202,9.044892922466405,0.001219390392752248,0.0009174232140968979,0.0014261867363815173,27.30000114440918,36498,,,,3.2178242206573486,2.049940824508667,8.819012641906738,-0.0015961192548274994,0.0005708043463528156,0.0018651019781827927,35.918235778808594,,,,,,,,,,,,,,,,2779096485
3.2274296666274394,2.0154016699262653,9.047526499254914,-8.629090171338944e-05,0.0001782495428197372,-0.0010117175140422195,27.30000114440918,36499,-19.200000762939453,-20.549999237060547,-56.54999923706055,3.2274115085601807,2.0427379608154297,8.868915557861328,-0.0010634884238243103,0.0003044884651899338,-0.0031949058175086975,35.918235778808594,,,,,,,,,,,,,,,,2779096485
3.2306007592825527,2.0164830221685976,9.047817138708973,0.0006320435341771137,-0.00029767731441491217,0.0020681949759548813,27.399999618530273,36500,,,,3.2202212810516357,2.073951244354248,8.835647583007812,-0.0018624365329742432,-0.00022814422845840454,-0.0021296413615345955,35.918235778808594,,,,,,,,,,,,,,,,2779096485
3.2271302015412653,2.0152387904503666,9.049420755627308,0.0009890868811676225,-0.0012801973286257276,0.0014369592229168567,27.399999618530273,36501,,,,3.203443765640259,2.0691492557525635,8.909313201904297,-0.002661384642124176,-0.003423938760533929,-0.0007980605587363243,36.012351989746094,,,,,,,,,,,,,,,,2779096485
3.227437329883296,2.01584286881875,9.050522338563871,0.0011613334813875015,-0.00013542422611687727,-0.0011032503600792065,27.399999618530273,36502,,,,3.2322051525115967,2.0427379608154297,8.925946235656738,-0.0010634884238243103,0.0024350183084607124,0.0005335211753845215,36.012351989746094,,,,,,,,,,,,,,,,2779096485
3.2273228296262806,2.0121759684489042,9.04622790618321,0.0009714301232617386,-0.0001555444080141551,-0.0002888623622323743,27.399999618530273,36503,-19.950000762939453,-20.399999618530273,-56.849998474121094,3.2202212810516357,2.049940824508667,8.92357063293457,-0.005058232694864273,-0.001559725496917963,-0.0005317442119121552,35.918235778808594,,,,,,,,,,,,,,,,2779096485
3.2219575412199326,2.013015674390523,9.046961697014646,0.0014849341832191669,-0.00017439958840233857,-0.0004726005024769729,27.30000114440918,36504,,,,3.2298080921173096,2.049940824508667,8.883173942565918,1.776963472366333e-06,-0.001559725496917963,8.884817361831665e-07,35.918235778808594,,,,,,,,,,,,,,,,2779096485
3.223761695938944,2.012130398083717,9.045823349812396,0.0004386181455339252,-0.0005265560348261368,0.0004378477152288682,27.30000114440918,36505,,,,3.208237409591675,2.0475399494171143,8.861786842346191,-0.0015961192548274994,-0.0012934091500937939,-0.0023959577083587646,35.918235778808594,,,,,,,,,,,,,,,,2779096485
3.224856233165653,2.0164847044216194,9.044296698734833,0.0006329956142602741,0.0015661426195711413,-0.0012884865284266797,27.399999618530273,36506,,,,3.148318290710449,2.0811543464660645,8.899807929992676,-0.0031940191984176636,-0.0004944605752825737,-0.006390701048076153,35.918235778808594,,,,,,,,,,,,,,,,2779096485
3.224619980594861,2.018604118928527,9.045543844251807,0.0012195701561245928,-0.0012933200548069105,-0.0010038079256590405,27.5,36507,-19.649999618530273,-21.149999618530273,-57.0,3.1315407752990723,2.085956335067749,8.776240348815918,-0.00026454031467437744,-0.0026249901857227087,0.0015987856313586235,35.918235778808594,,,,,,,,,,,,,,,,2779096485
3.227477851684995,2.0152026407021006,9.047352279975536,0.0002746206867338761,0.00028461619602652456,0.001259679248271318,27.5,36508,,,,3.2250146865844727,2.0355348587036133,8.940204620361328,-0.002128753811120987,0.0005708043463528156,-0.0029285894706845284,35.918235778808594,,,,,,,,,,,,,,,,2779096485
3.2266733967287524,2.0157428682224614,9.050208347823169,-6.998569805143247e-05,-0.0010730433446575266,-0.0001832680257364029,27.5,36509,,,,3.210634231567383,2.0787534713745117,8.928322792053223,-0.0031940191984176636,3.817211836576462e-05,-0.000265427865087986,36.012351989746094,,,,,,,,,,,,,,,,2779096485
3.226069644312476,2.0191422903618608,9.046043374975651,0.0012369605979232988,-0.000529152616871119,0.00035362524633390986,27.5,36510,,,,3.2801403999328613,2.0235297679901123,9.006741523742676,0.0002680942416191101,0.0021687019616365433,-0.001330692321062088,35.82411575317383,,,,,,,,,,,,,,,,2779096485
3.2267765329380587,2.0151226776084705,9.044977921149782,0.0007992833915820511,-7.738063055749006e-05,0.0008063359969253405,27.5,36511,-19.950000762939453,-21.450000762939453,-57.45000076293945,3.186666488647461,2.0427379608154297,8.982978820800781,-0.0015961192548274994,-0.0010270928032696247,-0.003727538511157036,36.012351989746094,,,,,,,,,,,,,,,,2779096485
3.232757311625751,2.0146984133964043,9.047277667944456,0.0005287395162028702,0.0014290497454987226,-0.00028515391043992463,27.5,36512,,,,3.2202212810516357,2.0691492557525635,8.826142311096191,0.001067042350769043,-0.0031576226465404034,-0.0047928038984537125,35.918235778808594,,,,,,,,,,,,,,,,2779096485
3.228540876108353,2.0161237676899693,9.046714061290066,0.0007472119347261249,0.0007234119300179179,-0.00010640919720490867,27.30000114440918,36513,,,,3.181872844696045,2.0331337451934814,8.961590766906738,-0.0013298019766807556,0.0021687019616365433,-0.0005317442119121552,35.918235778808594,,,,,,,,,,,,,,,,2779096485
3.2301122173762735,2.0143711591085878,9.04955025252251,0.00022579162848283861,4.711309480046749e-06,-0.0001926290369037003,27.30000114440918,36514,-19.350000381469727,-21.0,-57.150001525878906,3.201046943664551,2.016326665878296,8.935452461242676,0.0013333596289157867,-0.002092357724905014,0.0015987856313586235,35.918235778808594,,,,,,,,,,,,,,,,2779096485
3.2287716335639702,2.018760232008938,9.050174124177465,0.00022141072851976492,0.0013620379550301253,0.0012515299753916797,27.30000114440918,36515,,,,3.2178242206573486,2.0451390743255615,8.800003051757812,-0.0015961192548274994,0.0024350183084607124,-0.002662274055182934,36.012351989746094,,,,,,,,,,,,,,,,2779096485
3.2280255314974444,2.018201873539344,9.044316537987964,0.0008644576009111224,-0.0009373086827317153,-0.00027984090410172876,27.399999618530273,36516,,,,3.2322051525115967,2.0307328701019287,8.942581176757812,-0.0010634884238243103,0.0021687019616365433,8.884817361831665e-07,36.012351989746094,,,,,,,,,,,,,,,,2779096485
3.2292401014780796,2.015253070909351,9.050058974312776,0.0013747525517770586,0.00029251912650702424,-0.0012829671271054211,27.399999618530273,36517,,,,3.16030216217041,2.0451390743255615,8.95921516418457,1.776963472366333e-06,-0.0007607764564454556,-0.0021296413615345955,35.918235778808594,,,,,,,,,,,,,,,,2779096485
3.2290297170685194,2.0180117415644943,9.04648667580126,0.0020583194198755084,-0.00016983892506692005,0.00016384173045637688,27.399999618530273,36518,-20.100000381469727,-20.850000381469727,-56.54999923706055,3.210634231567383,2.025930643081665,8.861786842346191,-0.0013298019766807556,-0.002092357724905014,-0.000265427865087986,35.918235778808594,,,,,,,,,,,,,,,,2779096485
3.2248694663001567,2.0131401237307265,9.042554094958405,0.0004613815147949418,0.0004945265517040153,-0.0007407941382103103,27.399999618530273,36519,,,,3.2202212810516357,1.9923163652420044,8.899807929992676,0.001599673181772232,3.817211836576462e-05,0.0013324692845344543,36.012351989746094,,,,,,,,,,,,,,,,2779096485
3.225346457250047,2.017001529933278,9.045254886090383,-0.00017323645280424007,-0.0002505193897364144,0.001344567507434221,27.30000114440918,36520,,,,3.181872844696045,2.049940824508667,8.906936645507812,-0.00026454031467437744,0.0027013346552848816,-0.0031949058175086975,35.918235778808594,,,,,,,,,,,,,,,,2779096485
3.2259957032388957,2.020651757306509,9.046136518587808,-8.503921600965404e-05,-0.00043889808814858485,0.0002582441325482041,27.30000114440918,36521,,,,3.2178242206573486,1.9563010931015015,8.852282524108887,-0.004259280860424042,-0.002891306299716234,-0.00559175293892622,35.918235778808594,,,,,,,,,,,,,,,,2779096485
3.2279396282683805,2.0198282383772983,9.051973032576244,-0.0007693850587215984,0.0004620160129202933,-0.002367333078603682,27.399999618530273,36522,-19.5,-20.850000381469727,-56.400001525878906,3.133937358856201,2.0355348587036133,8.861786842346191,0.001599673181772232,-0.0007607764564454556,-0.0007980605587363243,36.012351989746094,,,,,,,,,,,,,,,,2779096485
3.2273849580713208,2.017271101634152,9.051511088083378,0.0007237761172944842,-2.4177330246058157e-05,0.0015240312741586167,27.399999618530273,36523,,,,3.2058403491973877,2.071550130844116,8.883173942565918,-0.0013298019766807556,-0.003690255107358098,0.0010661538690328598,36.012351989746094,,,,,,,,,,,,,,,,2779096485
3.2290922567126548,2.019087523680155,9.04498475840651,0.001598225055212575,-0.0006556394519751842,0.0009798675723623521,27.399999618530273,36524,,,,3.2322051525115967,2.07635235786438,8.897431373596191,-0.0045255981385707855,-0.002891306299716234,-0.0034612221643328667,35.918235778808594,,,,,,,,,,,,,,,,2779096485
3.228718028154711,2.014364018879096,9.04617701905936,0.00010167500673265552,0.0004916703114545336,0.0010706946807153184,27.399999618530273,36525,,,,3.2202212810516357,2.088357448577881,8.942581176757812,-0.002128753811120987,-0.0023586738388985395,-0.0015970086678862572,35.918235778808594,,,,,,,,,,,,,,,,2779096485
3.22744174092813,2.017252821151316,9.04940846351002,0.001139069454827443,-0.001506286387814265,0.0011633061069863757,27.30000114440918,36526,-20.25,-21.0,-57.29999923706055,3.2465856075286865,2.0451390743255615,8.871292114257812,-0.0037266500294208527,0.001103437040001154,-0.0029285894706845284,35.918235778808594,,,,,,,,,,,,,,,,2779096485
3.2252363306561302,2.015825186470322,9.050266595272568,0.0012213811056534015,0.0002851221966301623,0.0008850590382070787,27.30000114440918,36527,,,,3.2633628845214844,2.0475399494171143,8.88792610168457,-0.0010634884238243103,-0.0004944605752825737,-0.0005317442119121552,36.012351989746094,,,,,,,,,,,,,,,,2779096485
3.22595088253757,2.017180409504583,9.045520492965164,0.0005303041233325396,-0.00042104159316231834,0.0012526152135284288,27.399999618530273,36528,,,,3.2513790130615234,2.0451390743255615,8.937828063964844,-0.0010634884238243103,-0.002891306299716234,-0.0029285894706845284,35.918235778808594,,,,,,,,,,,,,,,,2779096485
3.2220582849981425,2.0177914785688564,9.04653270585749,0.0008366741730298053,-0.0003359735706270706,0.0018892571835421618,27.5,36529,,,,3.184269666671753,2.0691492557525635,8.849905967712402,-0.0037266500294208527,-0.0026249901857227087,-0.0023959577083587646,36.012351989746094,,,,,,,,,,,,,,,,2779096485
3.2268159332876816,2.0144221126834445,9.047094182874538,0.0014463050318730365,0.0003630995528118028,-0.0003792433911058179,27.5,36530,-19.649999618530273,-20.850000381469727,-56.849998474121094,3.2585694789886475,2.0115246772766113,8.871292114257812,0.0008007250726222992,0.001369753386825323,-0.002662274055182934,35.918235778808594,,,,,,,,,,,,,,,,2779096485
3.223865729309912,2.0193502168353397,9.043597729342036,0.00022513249611757396,0.00010273561062949105,0.0008031535194445666,27.5,36531,,,,3.2441890239715576,2.0547430515289307,8.933075904846191,1.776963472366333e-06,-0.0026249901857227087,-0.0007980605587363243,35.918235778808594,,,,,,,,,,,,,,,,2779096485
3.2235741143882737,2.0206304487682347,9.053893031407034,0.0007823190555548295,0.0016101779878929792,-0.0014725442479998916,27.399999618530273,36532,,,,3.2226178646087646,1.9995192289352417,8.871292114257812,1.776963472366333e-06,-0.0010270928032696247,8.884817361831665e-07,36.012351989746094,,,,,,,,,,,,,,,,2779096485
3.2260851203511325,2.019459301597945,9.04719808675958,-0.0005227830013776959,9.876084272986314e-05,0.00025787794790083475,27.399999618530273,36533,,,,3.201046943664551,2.049940824508667,8.937828063964844,-0.0045255981385707855,-0.0026249901857227087,-0.004526487551629543,35.918235778808594,,,,,,,,,,,,,,,,2779096485
3.2272146468826297,2.014581029518892,9.047225099527967,0.00035133969930910194,-0.0004415079859989273,-0.00010549040663514545,27.399999618530273,36534,-20.25,-21.0,-56.849998474121094,3.155508279800415,2.0067226886749268,8.897431373596191,0.0013333596289157867,0.0019023856148123741,-0.0023959577083587646,35.918235778808594,,,,,,,,,,,,,,,,2779096485
3.227239879554352,2.016696593535549,9.052498866189364,0.0008537450354998981,-0.00019714298395531737,0.0010673058082514817,27.399999618530273,36535,,,,3.167492151260376,2.049940824508667,8.942581176757812,-0.0018624365329742432,0.0003044884651899338,0.0013324692845344543,35.918235778808594,,,,,,,,,,,,,,,,2779096485
3.231652045840843,2.0205922429329424,9.049780552251887,0.0016341244664601336,-0.0001230405271331128,0.0001583090133297593,27.30000114440918,36536,,,,3.2130308151245117,2.025930643081665,8.956838607788086,-0.002128753811120987,-0.003423938760533929,0.0013324692845344543,35.918235778808594,,,,,,,,,,,,,,,,2779096485
3.2240548061300176,2.0187793723099845,9.04438300509026,0.0018124297581183061,0.00041638274795538846,-0.0007493162536399978,27.30000114440918,36537,,,,3.2322051525115967,2.0307328701019287,8.973472595214844,-0.00292770192027092,0.0005708043463528156,-0.0015970086678862572,35.918235778808594,,,,,,,,,,,,,,,,2779096485
3.2239399320556434,2.017720823941946,9.04894143777718,1.555503557405585e-05,0.00021496121819418804,0.00016639836508528308,27.399999618530273,36538,-19.649999618530273,-20.100000381469727,-57.150001525878906,3.2585694789886475,2.0451390743255615,8.852282524108887,-0.0045255981385707855,-0.0018260413780808449,-0.002662274055182934,36.012351989746094,,,,,,,,,,,,,,,,2779096485
3.2276049495870036,2.011789349321123,9.050824074549343,0.0008128721709507953,-0.0005689935065049086,0.0007106219880056628,27.399999618530273,36539,,,,3.169888973236084,1.9995192289352417,8.854657173156738,0.0002680942416191101,-0.003690255107358098,8.884817361831665e-07,35.918235778808594,,,,,,,,,,,,,,,,2779096485
3.2274345636348403,2.0196634523479755,9.055237355638496,0.0005480873813893329,0.0007607827377576351,-0.0011042690191891617,27.399999618530273,36540,,,,3.2393951416015625,2.025930643081665,8.885550498962402,-0.004259280860424042,0.0008371206931769848,-0.0015970086678862572,36.012351989746094,,,,,,,,,,,,,,,,2779096485
3.225142652026003,2.016094085269987,9.050170911040425,0.001957492141698018,-0.0006453596502381236,7.393341267317361e-05,27.5,36541,,,,3.2393951416015625,2.083555221557617,8.866539001464844,-0.0005308538675308228,-0.0007607764564454556,0.0010661538690328598,35.918235778808594,,,,,,,,,,,,,,,,2779096485
3.222071032170079,2.011754321074872,9.047891825464168,0.0013598654813858234,0.0002619593532083792,-0.0017369428792059463,27.5,36542,-19.049999237060547,-21.0,-56.70000076293945,3.2346017360687256,2.0547430515289307,8.961590766906738,-0.004791915416717529,-0.0004944605752825737,-0.0005317442119121552,35.918235778808594,,,,,,,,,,,,,,,,2779096485
3.2267621783514793,2.0165254523281444,9.046810081780738,0.0004884325733815202,-0.0003514731680648144,7.937291916227892e-05,27.5,36543,,,,3.2226178646087646,2.049940824508667,8.904560089111328,0.0008007250726222992,-0.0007607764564454556,0.0002672048285603523,35.918235778808594,,,,,,,,,,,,,,,,2779096485
3.2252699368366913,2.021122489085374,9.04784523497706,-9.252309809550368e-06,-0.0004931200475699719,-0.0006405793870793287,27.5,36544,,,,3.2202212810516357,2.061946153640747,8.892678260803223,1.776963472366333e-06,0.001369753386825323,-0.0018633250147104263,36.012351989746094,,,,,,,,,,,,,,,,2779096485
3.2265175896535845,2.01932075871576,9.050936609069927,0.0017516897119737444,-0.00016354054913216703,-0.0002920048922970715,27.200000762939453,36545,,,,3.2441890239715576,2.0235297679901123,8.811884880065918,0.0002680942416191101,-0.0039565712213516235,-0.0010643759742379189,36.012351989746094,,,,,,,,,,,,,,,,2779096485
3.2278251280113652,2.0140572133113426,9.049275529305424,0.000325074273238698,0.0001363913086740772,-0.0008341778811921828,27.0,36546,-19.350000381469727,-21.450000762939453,-56.54999923706055,3.2322051525115967,2.0571441650390625,8.88792610168457,-0.0005308538675308228,-0.0007607764564454556,-0.0023959577083587646,36.012351989746094,,,,,,,,,,,,,,,,2779096485
3.2239037465353064,2.013272760035636,9.050765528203474,-0.0001989958782710067,0.00014801600675238506,0.0006165125336317309,27.0,36547,,,,3.2417919635772705,2.0691492557525635,8.935452461242676,1.776963472366333e-06,0.0008371206931769848,-0.0007980605587363243,35.918235778808594,,,,,,,,,,,,,,,,2779096485
3.230484801137838,2.0191627390819242,9.04714450956751,0.0001340457295601091,-0.0001810574910817821,7.954602463194449e-05,27.30000114440918,36548,,,,3.2393951416015625,2.073951244354248,8.956838607788086,-0.004259280860424042,0.001369753386825323,0.0015987856313586235,35.918235778808594,,,,,,,,,,,,,,,,2779096485
3.230770135927847,2.015807279821491,9.046700424138667,0.00024699704851686554,0.0014819201506761836,-0.00046730746984681524,27.399999618530273,36549,,,,3.2585694789886475,2.0451390743255615,8.91406536102295,0.0002680942416191101,-0.0012934091500937939,-0.0023959577083587646,35.918235778808594,,,,,,,,,,,,,,,,2779096485
3.2257056583501647,2.0129409449729607,9.051922332262688,0.001733453716534749,0.0003175262089710135,-0.0004683860500808851,27.399999618530273,36550,-20.25,-20.850000381469727,-57.0,3.181872844696045,2.0547430515289307,8.766735076904297,-0.0018624365329742432,-0.001559725496917963,-0.002662274055182934,36.012351989746094,,,,,,,,,,,,,,,,2779096485
3.2268463994024277,2.0173518871625924,9.044581659155982,0.0019057336062680255,0.000954554337340153,0.0006154672429110582,27.399999618530273,36551,,,,3.2393951416015625,2.040337085723877,8.84277629852295,-0.0018624365329742432,3.817211836576462e-05,0.002930366899818182,35.918235778808594,,,,,,,,,,,,,,,,2779096485
3.224839074948882,2.0161768521186527,9.050934479432588,0.001124934727438985,-0.0004886592527747445,-0.0002823243018011609,27.399999618530273,36552,,,,3.1267473697662354,2.061946153640747,8.861786842346191,-0.002128753811120987,3.817211836576462e-05,-0.003993854857981205,36.012351989746094,,,,,,,,,,,,,,,,2779096485
3.2284256655983556,2.014150522278945,9.051863374934173,0.0005149376839483845,-0.000673163051827479,-0.0008228993940532056,27.399999618530273,36553,,,,3.2489824295043945,2.100362539291382,8.928322792053223,-0.0023950673639774323,3.817211836576462e-05,8.884817361831665e-07,35.82411575317383,,,,,,,,,,,,,,,,2779096485
3.2262153209372193,2.0173874387764505,9.044707120948852,0.0010133349627261552,0.0010837243072240347,-0.0010137148848460525,27.399999618530273,36554,-19.5,-21.600000381469727,-56.54999923706055,3.2633628845214844,2.0331337451934814,8.925946235656738,-0.0010634884238243103,-0.0023586738388985395,-0.003993854857981205,36.012351989746094,,,,,,,,,,,,,,,,2779096485
3.23050749185152,2.015437072006521,9.049288419215651,0.0013599919815367328,5.81652132483363e-06,-0.00019657717319260986,27.30000114440918,36555,,,,3.2369985580444336,1.9875141382217407,8.88792610168457,-0.0015961192548274994,-0.003690255107358098,-0.0007980605587363243,36.012351989746094,,,,,,,,,,,,,,,,2779096485
3.226682966453139,2.0163595074134064,9.05067092747103,0.0013535937370617876,0.0005336150983350271,-0.0003799824183032363,27.30000114440918,36556,,,,3.2657597064971924,2.073951244354248,8.902183532714844,-0.002128753811120987,0.0003044884651899338,-0.0029285894706845284,36.012351989746094,,,,,,,,,,,,,,,,2779096485
3.226535906704168,2.0206326170054627,9.056904749590908,0.0018694746682757768,0.0014244291610391894,-0.00011368628483354,27.399999618530273,36557,,,,3.2130308151245117,2.083555221557617,8.821389198303223,-0.0031940191984176636,-0.0004944605752825737,8.884817361831665e-07,36.012351989746094,,,,,,,,,,,,,,,,2779096485
3.227670143334387,2.015195051871803,9.050238349556246,0.00016425263401674377,-0.00021600482224618054,0.00026339734922209337,27.399999618530273,36558,-19.5,-20.700000762939453,-56.849998474121094,3.2178242206573486,2.052342176437378,8.835647583007812,-0.0013298019766807556,3.817211836576462e-05,-0.0021296413615345955,36.012351989746094,,,,,,,,,,,,,,,,2779096485
3.228978952671188,2.0153376695446408,9.043613832389305,0.0009470422257469376,0.0005949077504019823,0.0006200611957598741,27.399999618530273,36559,,,,3.2274115085601807,2.0067226886749268,8.963967323303223,-0.004791915416717529,-0.0010270928032696247,-0.0023959577083587646,36.012351989746094,,,,,,,,,,,,,,,,2779096485
3.2272934102001387,2.016350797081094,9.04350787359104,0.00041665372459444164,-0.0005018751895934396,0.000353179166854387,27.399999618530273,36560,,,,3.2609663009643555,2.0667481422424316,8.866539001464844,-0.0010634884238243103,-0.0031576226465404034,-0.001330692321062088,36.012351989746094,,,,,,,,,,,,,,,,2779096485
3.226146164725832,2.0163515073657035,9.053046631330895,0.0013624354318200883,-0.0009738405947338205,0.0006218654873860032,27.30000114440918,36561,,,,3.201046943664551,2.0595450401306152,8.814261436462402,-0.0023950673639774323,0.001103437040001154,0.0007998375222086906,35.918235778808594,,,,,,,,,,,,,,,,2779096485
3.2269335736105114,2.018640530360596,9.051247087777119,0.0026712792300584614,-0.0008912293382872874,-0.00037909691724687024,27.30000114440918,36562,-19.950000762939453,-20.700000762939453,-57.150001525878906,3.2322051525115967,2.028331995010376,8.871292114257812,-0.0023950673639774323,-0.002891306299716234,-0.0007980605587363243,35.918235778808594,,,,,,,,,,,,,,,,2779096485
3.226882435395821,2.0151790143929964,9.04828640616533,0.0024035782791234027,0.0010898096302730453,0.0006110064481158312,27.30000114440918,36563,,,,3.2393951416015625,2.07635235786438,8.883173942565918,-0.0018624365329742432,-0.003690255107358098,-0.003727538511157036,35.918235778808594,,,,,,,,,,,,,,,,2779096485
3.227012486454964,2.0136361640717175,9.053324978667668,0.0011909145429922687,-0.0017955256539173231,-0.0010952342452531568,27.30000114440918,36564,,,,3.201046943664551,2.0811543464660645,8.928322792053223,-0.0010634884238243103,-0.0023586738388985395,-0.0031949058175086975,35.82411575317383,,,,,,,,,,,,,,,,2779096485
3.229069715525916,2.016460068760702,9.061948552781452,0.0016221202679290972,-0.00017101737384118184,7.480559792418071e-05,27.30000114440918,36565,-19.5,-21.149999618530273,-56.400001525878906,3.2178242206573486,2.0787534713745117,8.861786842346191,0.0002680942416191101,-0.0007607764564454556,-0.004526487551629543,35.918235778808594,,,,,,,,,,,,,,,,2779096485
3.227219282217879,2.014498150520024,9.050775877493715,0.0006623037018551837,-0.00016967247749993374,0.0003498036101959093,27.30000114440918,36566,,,,3.2226178646087646,2.001920461654663,8.904560089111328,-0.0015961192548274994,0.0003044884651899338,-0.000265427865087986,35.918235778808594,,,,,,,,,,,,,,,,2779096485
3.2244188668558,2.0170628760934686,9.050643952064702,0.0012113676200235185,-0.00047189465382790636,0.0017095737060293444,27.399999618530273,36567,,,,3.2633628845214844,2.028331995010376,8.819012641906738,-0.002128753811120987,-0.0010270928032696247,-0.0005317442119121552,35.918235778808594,,,,,,,,,,,,,,,,2779096485
3.226601100451551,2.021358340959013,9.048704524963426,0.0005138591037143147,-0.0002285549687969313,-0.0012772413308011002,27.399999618530273,36568,,,,3.2609663009643555,2.049940824508667,8.940204620361328,-0.0010634884238243103,-0.003690255107358098,-0.0015970086678862572,36.012351989746094,,,,,,,,,,,,,,,,2779096485
3.2243760273864766,2.0180894242706953,9.045097218202978,0.0013842001156791888,0.0006607477499989975,-0.002279515342261824,27.399999618530273,36569,-18.899999618530273,-21.75,-56.849998474121094,3.165095567703247,2.100362539291382,8.885550498962402,-0.002128753811120987,-0.002092357724905014,-0.0023959577083587646,36.012351989746094,,,,,,,,,,,,,,,,2779096485
3.2273994248031084,2.015935617035345,9.0489120711991,0.0011860542740362748,0.0016272821398764696,-0.0003823260000464005,27.399999618530273,36570,,,,3.186666488647461,2.085956335067749,8.95921516418457,-0.0015961192548274994,0.0005708043463528156,-0.0015970086678862572,36.012351989746094,,,,,,,,,,,,,,,,2779096485
3.225792346595682,2.014177587860894,9.048223712630953,0.0013607642982475482,-0.0005170951551186475,0.0016163963580305345,27.30000114440918,36571,,,,3.2346017360687256,2.016326665878296,8.925946235656738,-0.002661384642124176,-0.0007607764564454556,0.0007998375222086906,36.012351989746094,,,,,,,,,,,,,,,,2779096485
3.2256797901889325,2.016952445528446,9.047646917169867,0.0003165854473224077,-0.0010819715921506603,-0.0014569248083139176,27.30000114440918,36572,,,,3.193856716156006,2.052342176437378,8.838024139404297,-0.002128753811120987,0.0008371206931769848,-0.00559175293892622,35.918235778808594,,,,,,,,,,,,,,,,2779096485
3.225590447840168,2.0153291087459304,9.050012906894489,0.0011858279053451738,-8.554987714516713e-05,-0.00037675999340638575,27.30000114440918,36573,-20.399999618530273,-20.25,-57.0,3.186666488647461,1.9683061838150024,8.861786842346191,-0.0018624365329742432,0.0027013346552848816,-0.0010643759742379189,35.918235778808594,,,,,,,,,,,,,,,,2779096485
3.22464932525753,2.020135978530064,9.052568546428702,0.0010102190642721758,0.00035964410132117205,-0.0007399419266673414,27.30000114440918,36574,,,,3.2465856075286865,2.071550130844116,8.880797386169434,-0.00292770192027092,-0.002891306299716234,-0.004260171204805374,36.012351989746094,,,,,,,,,,,,,,,,2779096485
3.2282816337699916,2.0175776455181014,9.049158548699864,0.0012708692962697039,0.0006357606412430465,7.319438547575543e-05,27.30000114440918,36575,,,,3.210634231567383,2.028331995010376,8.892678260803223,0.0002680942416191101,0.0005708043463528156,-0.0007980605587363243,36.012351989746094,,,,,,,,,,,,,,,,2779096485
3.2230700964433385,2.0206394581677505,9.049097536458124,0.0010233351325506794,0.0007631662669168758,0.001433317350151201,27.399999618530273,36576,,,,3.191459894180298,2.0331337451934814,8.852282524108887,1.776963472366333e-06,0.0019023856148123741,-0.0031949058175086975,36.012351989746094,,,,,,,,,,,,,,,,2779096485
3.222175177686254,2.021628847244898,9.043389660037542,0.0001263491940626726,0.0002219453581049245,-0.0008201430223439164,27.600000381469727,36577,-19.950000762939453,-21.0,-57.150001525878906,3.2441890239715576,2.049940824508667,8.94970989227295,-0.0007971711456775665,-0.005288152489811182,-0.0007980605587363243,36.012351989746094,,,,,,,,,,,,,,,,2779096485
3.2260207863836747,2.018607969418776,9.041253297525243,0.000214100351377736,4.267467055823256e-05,-0.0008198167851126235,27.600000381469727,36578,,,,3.193856716156006,2.013925552368164,8.904560089111328,-0.00292770192027092,-0.0004944605752825737,-0.0015970086678862572,36.012351989746094,,,,,,,,,,,,,,,,2779096485
3.2208396030265596,2.0178807501292066,9.04506422750521,-0.00013994693940702326,-5.02030718200026e-05,-9.425186691224517e-05,27.600000381469727,36579,,,,3.210634231567383,2.0355348587036133,8.854657173156738,-0.00026454031467437744,-0.004755519796162844,-0.005059119313955307,36.012351989746094,,,,,,,,,,,,,,,,2779096485
3.2244202873617636,2.017220297592897,9.050204312720835,0.0018853471082635699,0.0010092956131705364,0.0007040972433798082,27.399999618530273,36580,,,,3.18906307220459,2.025930643081665,8.826142311096191,-0.0013298019766807556,-0.0026249901857227087,-0.006390701048076153,36.012351989746094,,,,,,,,,,,,,,,,2779096485
3.225796495968365,2.018054283874242,9.045511563433152,0.00032603301122453767,0.0008348918524825185,-0.0006473305003962845,27.30000114440918,36581,-19.799999237060547,-20.850000381469727,-56.849998474121094,3.196253538131714,2.0811543464660645,8.902183532714844,1.776963472366333e-06,0.0003044884651899338,0.0002672048285603523,35.918235778808594,,,,,,,,,,,,,,,,2779096485
3.2232414543206347,2.018322397622497,9.0489322093487,0.0009498318869696244,-0.0002228225145899307,-0.0006448803922102491,27.30000114440918,36582,,,,3.2537758350372314,2.0907585620880127,8.911689758300781,0.0005344115197658539,0.0005708043463528156,0.002397734671831131,35.918235778808594,,,,,,,,,,,,,,,,2779096485
3.2273143439722345,2.0199317903966327,9.04667479376645,0.0009493591758793843,-4.422427521386194e-05,-0.0007360603694052258,27.30000114440918,36583,,,,3.2441890239715576,2.073951244354248,8.942581176757812,-0.00292770192027092,0.0005708043463528156,-0.001330692321062088,36.012351989746094,,,,,,,,,,,,,,,,2779096485
3.227601959048133,2.015633970376858,9.047034067322208,-0.001492093736672496,-0.0008362616937658031,0.001358023128749376,27.30000114440918,36584,,,,3.2705533504486084,2.0571441650390625,8.868915557861328,-0.00292770192027092,-0.001559725496917963,-0.0021296413615345955,35.918235778808594,,,,,,,,,,,,,,,,2779096485
3.223698483423563,2.0187828115828292,9.039609441669766,0.0008623403878590592,-0.0004714752059591012,0.0018013395786601121,27.30000114440918,36585,-20.100000381469727,-20.700000762939453,-56.849998474121094,3.138731002807617,2.040337085723877,8.864163398742676,-0.0018624365329742432,-0.0004944605752825737,-0.000265427865087986,35.918235778808594,,,,,,,,,,,,,,,,2779096485
3.2212985385980186,2.019220720736071,9.045222119564967,0.0016804168637903033,0.0004780282688643545,0.0006211131443832263,27.5,36586,,,,3.2609663009643555,2.0427379608154297,8.925946235656738,0.0018659904599189758,-0.004755519796162844,-0.005325435660779476,35.918235778808594,,,,,,,,,,,,,,,,2779096485
3.2258142896746462,2.0182352942993744,9.043300514165658,0.0026581897933906757,-0.00048696814549416614,-0.0001019950077284378,27.5,36587,,,,3.2561726570129395,2.0787534713745117,8.868915557861328,-0.0007971711456775665,-0.0023586738388985395,-0.0018633250147104263,35.918235778808594,,,,,,,,,,,,,,,,2779096485
3.2241468025820303,2.019803228882376,9.049045453748398,0.0012594776247851762,0.000413772850105046,0.0005336016715646226,27.5,36588,,,,3.18906307220459,2.040337085723877,8.890301704406738,-0.0039929673075675964,-0.0007607764564454556,-0.001330692321062088,36.012351989746094,,,,,,,,,,,,,,,,2779096485
3.226766178197219,2.0176291972273654,9.049619559141263,0.0016077059086281023,0.000683151592515324,0.0005314445110964829,27.5,36589,-19.799999237060547,-20.399999618530273,-57.599998474121094,3.162698745727539,2.0931594371795654,8.906936645507812,-0.002661384642124176,-0.002092357724905014,0.0005335211753845215,35.918235778808594,,,,,,,,,,,,,,,,2779096485
3.2289839244420606,2.0166009667971174,9.045658246875323,0.0010872976035920918,-0.0003942568506829173,0.00044648301500410637,27.5,36590,,,,3.2417919635772705,2.0907585620880127,8.918818473815918,0.001067042350769043,0.0008371206931769848,-0.0018633250147104263,35.918235778808594,,,,,,,,,,,,,,,,2779096485
3.2254562100266053,2.01722126956131,9.045908497944007,-0.00039789406291669766,0.0003217340034644212,0.00044913286027052483,27.5,36591,,,,3.2322051525115967,2.037935733795166,8.80713176727295,-0.0023950673639774323,3.817211836576462e-05,-0.001330692321062088,36.012351989746094,,,,,,,,,,,,,,,,2779096485
3.2253204769436072,2.0162274318595044,9.051697113773283,0.0009830614792427262,0.00021135263494193035,0.000986698580511461,27.5,36592,,,,3.2346017360687256,2.0595450401306152,8.849905967712402,-0.002128753811120987,-0.0026249901857227087,-0.0031949058175086975,35.918235778808594,,,,,,,,,,,,,,,,2779096485
3.224906922799513,2.017185456263648,9.042002070542189,0.002085204030895101,-0.0008373469319025526,0.0008022480446801621,27.30000114440918,36593,-20.399999618530273,-21.299999237060547,-57.150001525878906,3.201046943664551,2.0331337451934814,8.811884880065918,0.0005344115197658539,-0.0012934091500937939,-0.0010643759742379189,36.012351989746094,,,,,,,,,,,,,,,,2779096485
3.2272723269011,2.0178269554159134,9.05545200066531,0.0010346136196896561,0.0005037943522338004,0.0004389595849763352,27.30000114440918,36594,,,,3.2058403491973877,2.0067226886749268,8.968720436096191,-0.005324546247720718,-0.004489203914999962,0.0013324692845344543,36.012351989746094,,,,,,,,,,,,,,,,2779096485
3.2307532767649634,2.015390641823123,9.051923154227978,0.0007822724502360733,-0.0010152793810106761,8.340095028334222e-05,27.399999618530273,36595,,,,3.2465856075286865,2.0667481422424316,8.864163398742676,0.0008007250726222992,-0.0010270928032696247,-0.0015970086678862572,35.918235778808594,,,,,,,,,,,,,,,,2779096485
3.2265724660418638,2.0150528080329706,9.04750210183063,0.0014086612501234637,0.00037311969634436486,0.000983755787527147,27.399999618530273,36596,,,,3.2322051525115967,2.0355348587036133,8.87842082977295,-0.005058232694864273,0.002967650070786476,8.884817361831665e-07,35.918235778808594,,,,,,,,,,,,,,,,2779096485
3.2284432723959577,2.01440394435081,9.048235855300009,0.0012371536771010028,-0.00044857202074181663,-0.0007333506030146927,27.399999618530273,36597,-19.799999237060547,-21.149999618530273,-57.0,3.2561726570129395,2.0427379608154297,8.928322792053223,0.001067042350769043,-0.001559725496917963,-0.0029285894706845284,35.918235778808594,,,,,,,,,,,,,,,,2779096485
3.2293192759946834,2.0157173727433326,9.04675803643307,0.0009656776953466998,0.0009924511193915462,0.0010732180258308274,27.399999618530273,36598,,,,3.148318290710449,2.073951244354248,8.800003051757812,0.0002680942416191101,3.817211836576462e-05,-0.005325435660779476,35.918235778808594,,,,,,,,,,,,,,,,2779096485
3.2287170562295784,2.0177437025830405,9.04401510089896,0.0010375430968686114,-0.0004013408591338448,-0.0005540000206358474,27.30000114440918,36599,,,,3.2130308151245117,2.0475399494171143,8.859410285949707,-0.00292770192027092,-0.0026249901857227087,0.0005335211753845215,36.012351989746094,,,,,,,,,,,,,,,,2779096485
3.2282758396009297,2.0154350159194947,9.050683705295082,-0.000535799201116008,0.000586645293176793,-0.0001897727966542191,27.30000114440918,36600,,,,3.18906307220459,2.028331995010376,8.902183532714844,0.0008007250726222992,-0.003423938760533929,-0.0018633250147104263,36.012351989746094,,,,,,,,,,,,,,,,2779096485
3.2335480474849234,2.016132328488679,9.046873559918346,0.0012073329309997757,0.0010473455269835565,0.001070355127678667,27.30000114440918,36601,-19.649999618530273,-21.600000381469727,-56.54999923706055,3.196253538131714,2.0595450401306152,8.885550498962402,-0.0010634884238243103,-0.001559725496917963,-0.0018633250147104263,35.918235778808594,,,,,,,,,,,,,,,,2779096485
3.2302143442787106,2.0146462635527325,9.055033059901925,0.0014092205139485368,0.0003617413406651962,-0.0003745628855221692,27.399999618530273,36602,,,,3.2705533504486084,2.0307328701019287,8.940204620361328,0.0002680942416191101,-0.001559725496917963,8.884817361831665e-07,35.918235778808594,,,,,,,,,,,,,,,,2779096485
3.2295431178291625,2.0139236050380216,9.053397162164934,0.0005383402118666275,-0.00034743182113839213,0.000717639417429796,27.399999618530273,36603,,,,3.2178242206573486,2.0787534713745117,8.968720436096191,-0.0007971711456775665,0.0021687019616365433,-0.0031949058175086975,36.012351989746094,,,,,,,,,,,,,,,,2779096485
3.23218611870143,2.013227040136847,9.04997128556118,1.3597612186299225e-05,1.608300725653572e-05,0.0013520842795593127,27.399999618530273,36604,,,,3.2154276371002197,2.0667481422424316,8.990107536315918,-0.0013298019766807556,0.0008371206931769848,-0.001330692321062088,36.012351989746094,,,,,,,,,,,,,,,,2779096485
3.226239394775129,2.0147124321715846,9.04826817348072,0.0008219934976216327,-0.0006868849892498119,-0.0012726074305362076,27.5,36605,-19.049999237060547,-21.299999237060547,-56.70000076293945,3.299314498901367,2.0067226886749268,8.918818473815918,1.776963472366333e-06,-0.0012934091500937939,-0.0007980605587363243,36.012351989746094,,,,,,,,,,,,,,,,2779096485
3.226950245864716,2.0162027588151865,9.041182982130906,0.002719242760961171,-8.690143138909406e-05,-0.0005586538946087782,27.5,36606,,,,3.186666488647461,2.001920461654663,8.885550498962402,-0.0023950673639774323,-0.001559725496917963,8.884817361831665e-07,35.918235778808594,,,,,,,,,,,,,,,,2779096485
3.2264860394684978,2.0169758475371475,9.04659341920276,0.0015847561180920612,2.4409646663565987e-06,-0.0004644712033053727,27.5,36607,,,,3.203443765640259,2.0475399494171143,8.944957733154297,0.001067042350769043,-0.0007607764564454556,-0.001330692321062088,35.82411575317383,,,,,,,,,,,,,,,,2779096485
3.230092816255349,2.0181319665804436,9.051101375748475,0.0015124246633825885,-0.00013658935908577967,0.0011676537174360522,27.5,36608,,,,3.2489824295043945,2.049940824508667,8.819012641906738,-0.0031940191984176636,-0.0007607764564454556,-0.0010643759742379189,35.918235778808594,,,,,,,,,,,,,,,,2779096485
3.23044708296633,2.0125151480414742,9.04530315787013,0.0025696263719487203,-0.00020664381107888315,0.0012556845066636522,27.5,36609,-20.100000381469727,-20.25,-57.150001525878906,3.2633628845214844,2.037935733795166,8.883173942565918,-0.0015961192548274994,-0.005021836142987013,0.0007998375222086906,35.918235778808594,,,,,,,,,,,,,,,,2779096485
3.2273107553255893,2.016952221228043,9.050920692832953,0.0005593858422363483,0.0011328063657768906,0.0008051841797617968,27.5,36610,,,,3.201046943664551,2.0451390743255615,8.854657173156738,-0.0010634884238243103,0.0021687019616365433,-0.000265427865087986,36.012351989746094,,,,,,,,,,,,,,,,2779096485
3.228668684263343,2.0123074832517984,9.04587304135037,-0.001280239273412608,0.00030000926702139757,8.914006239302231e-05,27.5,36611,,,,3.2561726570129395,2.0547430515289307,8.84277629852295,-0.004259280860424042,-0.0031576226465404034,-0.0007980605587363243,36.012351989746094,,,,,,,,,,,,,,,,2779096485
3.2265158327119976,2.0111700185253434,9.043172922735446,0.0004462014966858112,0.0015274002838794607,-0.0002847544362791577,27.399999618530273,36612,-19.649999618530273,-21.149999618530273,-56.25,3.2369985580444336,2.0355348587036133,8.885550498962402,1.776963472366333e-06,0.0008371206931769848,-0.0031949058175086975,36.012351989746094,,,,,,,,,,,,,,,,2779096485
3.226508991854331,2.016801566124102,9.04433544318963,-0.0002488835430480758,0.0004536070818361559,8.366726639051983e-05,27.399999618530273,36613,,,,3.2058403491973877,2.0571441650390625,8.826142311096191,-0.0018624365329742432,-0.002891306299716234,-0.002662274055182934,35.918235778808594,,,,,,,,,,,,,,,,2779096485
3.2289637756864185,2.0142409527247103,9.050788580593647,0.0007058463853787432,0.0002770395027773178,0.0013483025908373888,27.399999618530273,36614,,,,3.167492151260376,1.9538997411727905,8.84277629852295,-0.002128753811120987,0.0003044884651899338,0.0018651019781827927,35.918235778808594,,,,,,,,,,,,,,,,2779096485
3.229565322580278,2.016145113611644,9.047061902055885,-9.23233610151215e-06,-0.0005748857503762158,0.0002652615619723375,27.30000114440918,36615,,,,3.2130308151245117,2.052342176437378,8.921195030212402,-0.0010634884238243103,-0.0010270928032696247,-0.004526487551629543,36.012351989746094,,,,,,,,,,,,,,,,2779096485
3.226154351325991,2.014750226789472,9.048398380255035,-0.00026760556538267056,-0.0016581198584189709,-0.0005450451415319958,27.30000114440918,36616,-19.049999237060547,-20.700000762939453,-57.150001525878906,3.2130308151245117,2.0787534713745117,8.904560089111328,0.001067042350769043,-0.0023586738388985395,0.0018651019781827927,36.012351989746094,,,,,,,,,,,,,,,,2779096485
3.2292876510461253,2.0192363843808727,9.051535597593839,-9.537893887082973e-05,-0.0006820912993206127,-0.0018168710008726638,27.30000114440918,36617,,,,3.201046943664551,2.0955605506896973,8.911689758300781,-0.002128753811120987,-0.0007607764564454556,-0.002662274055182934,36.012351989746094,,,,,,,,,,,,,,,,2779096485
3.2278980971598124,2.020139791636913,9.048849639199133,0.0008325129838551533,-0.00044243343447136936,0.0008930418635197312,27.30000114440918,36618,,,,3.2322051525115967,2.064347267150879,8.871292114257812,-0.0013298019766807556,0.0035002827644348145,-0.0034612221643328667,35.918235778808594,,,,,,,,,,,,,,,,2779096485
3.2293529943204518,2.0208060386002966,9.049478517369947,-0.0009352866776879683,0.000763139635306157,-0.000646331814994368,27.30000114440918,36619,,,,3.186666488647461,2.0211286544799805,8.885550498962402,-0.0015961192548274994,-0.004222887568175793,-0.0015970086678862572,35.918235778808594,,,,,,,,,,,,,,,,2779096485
3.226784383102595,2.018615894699678,9.050897154736019,0.001679930836894704,0.0014861412609749507,-0.0002957399757002395,27.30000114440918,36620,-18.899999618530273,-20.100000381469727,-56.400001525878906,3.2393951416015625,2.0811543464660645,8.928322792053223,-0.004791915416717529,0.0005708043463528156,-0.0015970086678862572,35.918235778808594,,,,,,,,,,,,,,,,2779096485
3.225597886805609,2.0146011791717515,9.0422047970723,0.00037663972949098694,-0.0004850506695224868,7.794812798887795e-05,27.30000114440918,36621,,,,3.2202212810516357,2.037935733795166,8.904560089111328,0.001067042350769043,0.001636069267988205,-0.003727538511157036,35.918235778808594,,,,,,,,,,,,,,,,2779096485
3.22586639981447,2.0182376494536047,9.04703675739043,0.002206437780785085,0.0003261215613301746,0.00034040930951521474,27.30000114440918,36622,,,,3.157905101776123,1.9923163652420044,8.92357063293457,-0.0031940191984176636,-0.0023586738388985395,-0.0010643759742379189,35.918235778808594,,,,,,,,,,,,,,,,2779096485
3.2262789072699594,2.0175978699377617,9.054693289340769,0.0022031421189587603,0.0014075846672601975,0.0009705198770004137,27.30000114440918,36623,,,,3.2585694789886475,2.028331995010376,8.952086448669434,-0.0007971711456775665,0.0032339664176106453,-0.0015970086678862572,35.918235778808594,,,,,,,,,,,,,,,,2779096485
3.227592426705482,2.0151063036790595,9.043149309914394,-0.00013422114310270234,0.00043221524052710486,-0.0005560306809530777,27.399999618530273,36624,-19.649999618530273,-20.25,-56.849998474121094,3.2202212810516357,2.0955605506896973,8.87842082977295,-0.0023950673639774323,-0.0018260413780808449,-0.0023959577083587646,35.918235778808594,,,,,,,,,,,,,,,,2779096485
3.2259804141089186,2.0144739260765117,9.050244327485625,0.0018833497374597368,-7.577607601174426e-05,0.0007074594842329271,27.399999618530273,36625,,,,3.193856716156006,2.0307328701019287,8.852282524108887,-0.002128753811120987,0.001369753386825323,-0.0015970086678862572,35.918235778808594,,,,,,,,,,,,,,,,2779096485
3.227232739642798,2.015713447486282,9.043626572851297,0.0013581544003972064,0.0006350815351697436,-1.766601239060802e-05,27.399999618530273,36626,,,,3.2058403491973877,2.0547430515289307,8.911689758300781,0.0002680942416191101,3.817211836576462e-05,-0.0031949058175086975,35.918235778808594,,,,,,,,,,,,,,,,2779096485
3.2208630787566954,2.0223370757670236,9.04546209606753,0.0011944365735096943,0.00046885367897208166,-0.000558946842326674,27.5,36627,,,,3.141127824783325,2.0475399494171143,8.94970989227295,-0.002128753811120987,0.0005708043463528156,-0.00559175293892622,36.012351989746094,,,,,,,,,,,,,,,,2779096485
3.2246726514607222,2.0135962386000035,9.04875148907112,0.0012161147046339618,-0.0018367979926271925,-0.0006401333075998061,27.5,36628,-19.799999237060547,-21.149999618530273,-57.0,3.2609663009643555,2.0547430515289307,8.823765754699707,-0.0037266500294208527,-0.0018260413780808449,-0.0021296413615345955,35.918235778808594,,,,,,,,,,,,,,,,2779096485
3.224716575000387,2.016699920658192,9.049690733862947,0.001032716117426015,0.0013876975119567004,-0.0011036098868238966,27.5,36629,,,,3.2346017360687256,1.997118353843689,8.909313201904297,-0.00292770192027092,-0.0004944605752825737,-0.0021296413615345955,36.012351989746094,,,,,,,,,,,,,,,,2779096485
3.2229077101826547,2.019675601953132,9.046330465034142,0.0010260981621626484,0.0002009862804700363,-0.0014625440781753677,27.5,36630,,,,3.191459894180298,2.0115246772766113,8.952086448669434,-0.0023950673639774323,-0.0010270928032696247,-0.0018633250147104263,35.918235778808594,,,,,,,,,,,,,,,,2779096485
3.2228360493949633,2.016879585280907,9.045307716041284,0.0013602716134492694,-0.00016900002932931056,0.00034737347571791254,27.5,36631,,,,3.2537758350372314,2.0187277793884277,8.88792610168457,-0.0010634884238243103,0.0003044884651899338,-0.003993854857981205,35.918235778808594,,,,,,,,,,,,,,,,2779096485
3.2255435711433686,2.0203921669735645,9.048499556709798,0.0012747641693371782,-0.0007117056504387766,-0.00019376088035920553,27.5,36632,-19.799999237060547,-20.850000381469727,-57.45000076293945,3.2154276371002197,2.025930643081665,8.904560089111328,-0.0013298019766807556,-0.0007607764564454556,-0.000265427865087986,35.82411575317383,,,,,,,,,,,,,,,,2779096485
3.2271121087810974,2.0166319202527165,9.042533695274395,0.0004909292868863118,-0.0010787691409618484,-0.0010953141400853101,27.5,36633,,,,3.2489824295043945,2.0427379608154297,8.980602264404297,0.0008007250726222992,-0.002092357724905014,-0.0047928038984537125,35.918235778808594,,,,,,,,,,,,,,,,2779096485
3.2230599659929133,2.014758226837175,9.051239578003335,0.0005492325406501971,0.0002302877101622667,-0.00019683683139710842,27.399999618530273,36634,,,,3.2226178646087646,2.0235297679901123,8.859410285949707,-0.004791915416717529,0.0024350183084607124,-0.0021296413615345955,36.012351989746094,,,,,,,,,,,,,,,,2779096485
3.228527829882529,2.0208529921513017,9.04588772463941,0.001160734270146352,-0.00020766247018883747,0.0009798143091409165,27.399999618530273,36635,,,,3.2274115085601807,2.0547430515289307,8.88792610168457,0.0005344115197658539,-0.002891306299716234,-0.0031949058175086975,36.012351989746094,,,,,,,,,,,,,,,,2779096485
3.227898807412794,2.0181251628015553,9.050772552270496,0.0008998709852630817,-0.0003948560619240673,7.581094122877672e-05,27.399999618530273,36636,-19.200000762939453,-21.299999237060547,-57.0,3.2633628845214844,2.064347267150879,8.819012641906738,-0.004259280860424042,0.0003044884651899338,-0.0005317442119121552,35.918235778808594,,,,,,,,,,,,,,,,2779096485
3.2315619184756246,2.0201480159850185,9.052319677756188,0.00028861559816606604,-4.6587830665064354e-05,-0.0011005272778833145,27.399999618530273,36637,,,,3.2130308151245117,2.064347267150879,8.88792610168457,-0.005058232694864273,-0.0010270928032696247,-0.0023959577083587646,35.918235778808594,,,,,,,,,,,,,,,,2779096485
3.22553519763453,2.0156027178540556,9.050849891731856,0.00021117753210146044,-0.0005338664119681653,0.002886870663127275,27.399999618530273,36638,,,,3.2202212810516357,2.0307328701019287,8.911689758300781,-0.002661384642124176,-0.0012934091500937939,-0.0015970086678862572,35.918235778808594,,,,,,,,,,,,,,,,2779096485
3.2286348164106315,2.0168535290507714,9.046985534008051,0.001622612952727376,-0.0005191191575331985,0.0013438218223341234,27.399999618530273,36639,,,,3.2369985580444336,1.9923163652420044,8.852282524108887,-0.0015961192548274994,-0.002092357724905014,-0.0047928038984537125,35.918235778808594,,,,,,,,,,,,,,,,2779096485
3.2276559382747503,2.0154662310588973,9.04415853384203,-0.00012041931084821617,-0.0010664719947129165,0.0004462300147022875,27.399999618530273,36640,-19.350000381469727,-20.850000381469727,-57.29999923706055,3.196253538131714,2.083555221557617,8.921195030212402,-0.0018624365329742432,-0.0026249901857227087,0.0002672048285603523,36.012351989746094,,,,,,,,,,,,,,,,2779096485
3.229420430971988,2.0133911906483615,9.051505969481347,0.0014439481343245136,0.0010873595220870112,0.0004332337886720141,27.399999618530273,36641,,,,3.2346017360687256,2.049940824508667,8.990107536315918,-0.0010634884238243103,-0.003690255107358098,-0.0021296413615345955,35.918235778808594,,,,,,,,,,,,,,,,2779096485
3.228337183029516,2.0170633994610756,9.048145663290482,0.00039826459739381904,0.0007223200339784895,-0.0001957515932603589,27.399999618530273,36642,,,,3.2202212810516357,2.073951244354248,8.911689758300781,-0.0018624365329742432,-0.002092357724905014,-0.002662274055182934,35.918235778808594,,,,,,,,,,,,,,,,2779096485
3.23227523675978,2.017359214309087,9.053832953216762,0.001735284639771596,-0.00048049000618706744,0.0006210998285778673,27.399999618530273,36643,,,,3.2705533504486084,2.028331995010376,8.866539001464844,-0.0018624365329742432,-0.0007607764564454556,0.0005335211753845215,35.918235778808594,,,,,,,,,,,,,,,,2779096485
3.231410111246196,2.0157357279929693,9.048925558902264,0.000425029366165181,0.00031095485902640253,-0.0010977109850499097,27.399999618530273,36644,-19.049999237060547,-22.049999237060547,-57.45000076293945,3.2537758350372314,2.040337085723877,8.892678260803223,-0.0037266500294208527,0.0024350183084607124,-0.0031949058175086975,35.918235778808594,,,,,,,,,,,,,,,,2779096485
3.2315897678688588,2.0150636866025105,9.049247694571747,7.746687259019931e-05,-0.000394689614357081,0.0003548835899403245,27.399999618530273,36645,,,,3.2801403999328613,2.0451390743255615,8.906936645507812,0.0005344115197658539,0.001103437040001154,-0.0047928038984537125,36.012351989746094,,,,,,,,,,,,,,,,2779096485
3.2315363867500153,2.0148405450850357,9.051889341564921,0.0023443229452763566,0.00031508275868765735,-0.0008327264584080643,27.399999618530273,36646,,,,3.2585694789886475,2.0091235637664795,8.816637992858887,0.0002680942416191101,-0.001559725496917963,-0.004260171204805374,35.918235778808594,,,,,,,,,,,,,,,,2779096485
3.2298867681271517,2.0145968053138947,9.045359051509838,0.0012106485665341385,-0.00011924552260582973,0.0009838822876780564,27.399999618530273,36647,,,,3.2441890239715576,2.0235297679901123,8.902183532714844,-0.0039929673075675964,-0.001559725496917963,-0.0005317442119121552,35.918235778808594,,,,,,,,,,,,,,,,2779096485
3.2291524413074293,2.013232124279312,9.043954499639867,0.0010408720482083331,0.0016947266940192307,0.001341245213997179,27.399999618530273,36648,-20.25,-21.149999618530273,-57.150001525878906,3.208237409591675,2.064347267150879,8.857033729553223,0.0005344115197658539,-0.0007607764564454556,-0.000265427865087986,35.918235778808594,,,,,,,,,,,,,,,,2779096485
3.2313642064745296,2.017494616985631,9.042220190240455,-0.0001658594966354168,0.0003453961895871632,-0.0010939492700360242,27.399999618530273,36649,,,,3.2561726570129395,1.9779101610183716,8.804756164550781,-0.0013298019766807556,0.0005708043463528156,-0.0034612221643328667,35.918235778808594,,,,,,,,,,,,,,,,2779096485
3.233163165132253,2.0154506421808964,9.05022598271484,-9.798257829264547e-06,-0.00022527262277596567,-0.0008226463937513868,27.30000114440918,36650,,,,3.2226178646087646,1.9707070589065552,8.802379608154297,-0.002128753811120987,-0.002092357724905014,-0.0023959577083587646,35.82411575317383,,,,,,,,,,,,,,,,2779096485
3.2334743680834945,2.0184672209159626,9.049798037695325,0.0009443391172590837,0.0015798578990907945,0.00043549747558302475,27.30000114440918,36651,,,,3.186666488647461,2.004321575164795,8.859410285949707,-0.0007971711456775665,-0.001559725496917963,-0.002662274055182934,35.918235778808594,,,,,,,,,,,,,,,,2779096485
3.2280387272502113,2.016685079448201,9.050632481912704,0.0009468025412504777,0.0008533275850018977,-0.0006486421072241346,27.30000114440918,36652,-19.799999237060547,-20.700000762939453,-57.150001525878906,3.2777435779571533,2.049940824508667,8.866539001464844,-0.003460332751274109,-0.00022814422845840454,0.002397734671831131,36.012351989746094,,,,,,,,,,,,,,,,2779096485
3.2280174944242286,2.0122916700733953,9.05038708791164,0.0010789286199240312,0.0009328961799239246,-0.0006452865242736953,27.5,36653,,,,3.143524646759033,2.040337085723877,8.933075904846191,-0.002661384642124176,-0.002092357724905014,0.0013324692845344543,35.918235778808594,,,,,,,,,,,,,,,,2779096485
3.230306527639403,2.0148281337960756,9.046030186168956,0.001870633143342,0.0003208951077268117,7.902005032026831e-05,27.5,36654,,,,3.208237409591675,2.0451390743255615,8.845152854919434,-0.0023950673639774323,-0.002891306299716234,-0.0015970086678862572,36.012351989746094,,,,,,,,,,,,,,,,2779096485
3.223948417709689,2.0143513459063325,9.040127690784983,0.0005791797869023332,0.0017763592387718867,-0.0016402501585923903,27.5,36655,,,,3.1243505477905273,2.0331337451934814,8.947334289550781,-0.0015961192548274994,3.817211836576462e-05,-0.003993854857981205,35.918235778808594,,,,,,,,,,,,,,,,2779096485
3.2218918615099827,2.0179349934433053,9.044696398038024,0.0014596408109399616,0.0005444208743837636,-8.464790887617243e-06,27.5,36656,-19.950000762939453,-19.950000762939453,-56.54999923706055,3.2585694789886475,2.07635235786438,8.852282524108887,-0.0007971711456775665,0.0019023856148123741,-0.0010643759742379189,36.012351989746094,,,,,,,,,,,,,,,,2779096485
3.2275286908457987,2.0206390469503455,9.04959818804373,0.0005029667749307451,-0.0006170236164344126,0.0006328377110017258,27.5,36657,,,,3.179476022720337,2.083555221557617,8.956838607788086,-0.0007971711456775665,-0.003423938760533929,-0.0005317442119121552,35.918235778808594,,,,,,,,,,,,,,,,2779096485
3.226266421770174,2.019902145360051,9.0522398350369,0.0006785023790742695,-0.0005537136198555861,-0.002537502413187575,27.5,36658,,,,3.177079439163208,2.0451390743255615,8.847529411315918,0.001067042350769043,-0.00022814422845840454,0.002131418325006962,35.918235778808594,,,,,,,,,,,,,,,,2779096485
3.2250775704238275,2.0206790098054603,9.048173199127689,0.0006978768758714496,0.0012111499066059005,-0.0005492396202200454,27.600000381469727,36659,,,,3.2178242206573486,2.0931594371795654,8.987730979919434,-0.0031940191984176636,0.001369753386825323,-0.003727538511157036,35.918235778808594,,,,,,,,,,,,,,,,2779096485
3.223584170075227,2.0184308094838936,9.04679125130319,0.001419207367967702,0.0017947816554859065,-0.00046096248859330566,27.700000762939453,36660,-19.5,-21.0,-57.0,3.2154276371002197,2.0811543464660645,8.954463005065918,-0.0023950673639774323,-0.0023586738388985395,-0.0010643759742379189,36.012351989746094,,,,,,,,,,,,,,,,2779096485
3.2189971694100024,2.0199988936004973,9.055097434728939,-0.0004079541538653366,-8.341269038506568e-05,0.00036700763071959084,27.700000762939453,36661,,,,3.167492151260376,2.071550130844116,8.859410285949707,-0.002128753811120987,0.0008371206931769848,-0.0023959577083587646,35.918235778808594,,,,,,,,,,,,,,,,2779096485
3.222815863257585,2.022364889016982,9.047028575099588,0.001582246088781911,0.00042939894769369966,0.00026636011591444557,27.700000762939453,36662,,,,3.16030216217041,2.071550130844116,8.868915557861328,-0.005324546247720718,-0.005021836142987013,0.0005335211753845215,35.918235778808594,,,,,,,,,,,,,,,,2779096485
3.2236973993532225,2.0184625853743032,9.04149585200985,0.00012680858934755422,-0.00012539742468163553,0.0005394339943118149,27.399999618530273,36663,-19.799999237060547,-20.399999618530273,-56.70000076293945,3.2130308151245117,2.0115246772766113,8.871292114257812,-0.0015961192548274994,-0.001559725496917963,-0.0015970086678862572,35.918235778808594,,,,,,,,,,,,,,,,2779096485
3.226145529236322,2.0162763293473347,9.04542589223272,0.00029930153196657287,0.0009296937287351119,-0.002000469325160994,27.399999618530273,36664,,,,3.2226178646087646,2.0307328701019287,8.935452461242676,0.0008007250726222992,-0.0018260413780808449,-0.002662274055182934,35.918235778808594,,,,,,,,,,,,,,,,2779096485
3.2253925863121293,2.018320491069072,9.053548254330023,0.0002114638219166765,-0.0007756348319667922,-0.0010890557115666335,27.399999618530273,36665,,,,3.203443765640259,2.004321575164795,8.845152854919434,-0.0023950673639774323,-0.003423938760533929,-0.000265427865087986,35.918235778808594,,,,,,,,,,,,,,,,2779096485
3.221130844130839,2.0172484846768604,9.051775648820518,0.0007118851031089981,-0.00015880678032708252,0.0018030573175514086,27.30000114440918,36666,,,,3.201046943664551,2.073951244354248,8.918818473815918,-0.0013298019766807556,-0.0018260413780808449,-0.003993854857981205,35.918235778808594,,,,,,,,,,,,,,,,2779096485
3.2244897800087737,2.0146657776877834,9.047418448181364,5.880703506668493e-07,0.0011606031094635672,0.0008944067335690171,27.30000114440918,36667,-19.950000762939453,-21.0,-56.849998474121094,3.2058403491973877,2.0355348587036133,8.847529411315918,-0.0018624365329742432,-0.0004944605752825737,-0.0023959577083587646,35.918235778808594,,,,,,,,,,,,,,,,2779096485
3.2233053770889977,2.0172463538230327,9.051449664858996,0.0009483538325747881,0.00031449686325186674,-0.0007373187130116409,27.30000114440918,36668,,,,3.2058403491973877,2.0907585620880127,8.947334289550781,-0.0015961192548274994,-0.0007607764564454556,-0.005059119313955307,35.918235778808594,,,,,,,,,,,,,,,,2779096485
3.2256507445801503,2.019230926404403,9.047143724964279,1.4975798040944063e-05,-0.0003502148244583997,0.00044779462183195664,27.399999618530273,36669,,,,3.162698745727539,2.0787534713745117,8.933075904846191,-0.0031940191984176636,-0.0018260413780808449,0.002131418325006962,36.012351989746094,,,,,,,,,,,,,,,,2779096485
3.22616253792615,2.0170578293344037,9.049356418162352,-7.423343996091746e-05,0.0005351197843405809,-0.0009133603177588026,27.399999618530273,36670,,,,3.2465856075286865,2.0787534713745117,8.873668670654297,-0.0018624365329742432,-0.002092357724905014,-0.0034612221643328667,36.012351989746094,,,,,,,,,,,,,,,,2779096485
3.2264012576915104,2.014948807412831,9.050976287576189,0.0020177261872389423,0.0009991889169031426,0.0007077724056588608,27.399999618530273,36671,-20.399999618530273,-21.0,-56.400001525878906,3.2346017360687256,2.025930643081665,8.925946235656738,-0.0007971711456775665,3.817211836576462e-05,-0.0007980605587363243,36.012351989746094,,,,,,,,,,,,,,,,2779096485
3.228784679789794,2.0159513554469473,9.049580665238233,0.00036132655332826724,0.0005491879327022449,0.000715102756508928,27.399999618530273,36672,,,,3.196253538131714,2.004321575164795,8.840400695800781,-0.00292770192027092,-0.0004944605752825737,-0.0010643759742379189,35.918235778808594,,,,,,,,,,,,,,,,2779096485
3.2269425078453877,2.017428448366779,9.047337372514143,-0.0001572108810548199,-0.001242626783805629,0.000994867827099138,27.399999618530273,36673,,,,3.2298080921173096,2.061946153640747,8.902183532714844,-0.0018624365329742432,-0.0026249901857227087,8.884817361831665e-07,35.918235778808594,,,,,,,,,,,,,,,,2779096485
3.2247993381636366,2.0182322662439356,9.046159869874451,-0.0004216494596769515,-0.00025792297751595604,0.0008112162395893725,27.399999618530273,36674,,,,3.2369985580444336,2.0595450401306152,8.885550498962402,-0.0031940191984176636,-0.0012934091500937939,-0.0005317442119121552,35.918235778808594,,,,,,,,,,,,,,,,2779096485
3.2263173730761854,2.019290889378775,9.04744303241594,0.0014845080774476824,-0.000822692888105098,0.0005335350925378282,27.399999618530273,36675,-19.950000762939453,-21.0,-57.29999923706055,3.2322051525115967,2.0811543464660645,8.918818473815918,-0.002661384642124176,-0.00022814422845840454,-0.004260171204805374,36.012351989746094,,,,,,,,,,,,,,,,2779096485
3.2242341263170573,2.015262641059874,9.051554091812859,0.0015592030876083575,5.893326890143297e-05,0.0008009297799496324,27.30000114440918,36676,,,,3.2441890239715576,2.061946153640747,8.868915557861328,-0.002128753811120987,-0.001559725496917963,-0.0047928038984537125,36.10647201538086,,,,,,,,,,,,,,,,2779096485
3.226706928145841,2.0099703852038866,9.04709115654779,0.001296954958967763,0.00023804416678381828,0.0008012160697648484,27.30000114440918,36677,,,,3.2561726570129395,2.052342176437378,8.861786842346191,0.0002680942416191101,-0.0018260413780808449,-0.0031949058175086975,36.012351989746094,,,,,,,,,,,,,,,,2779096485
3.225496021575323,2.016303021095278,9.048793035680315,-9.077832811933435e-05,0.0009655798241773117,7.993884089003154e-05,27.399999618530273,36678,,,,3.2058403491973877,2.0907585620880127,8.87842082977295,0.001067042350769043,-0.0018260413780808449,-0.003727538511157036,36.012351989746094,,,,,,,,,,,,,,,,2779096485
3.2268143632547743,2.009918422277217,9.043580318622716,0.0021088395854071246,-0.00026305622048180665,-0.0001031335090866223,27.399999618530273,36679,-19.200000762939453,-20.549999237060547,-57.0,3.201046943664551,2.0427379608154297,8.828518867492676,-0.0018624365329742432,0.0003044884651899338,-0.0010643759742379189,36.012351989746094,,,,,,,,,,,,,,,,2779096485
3.230104180303058,2.013731117908941,9.048500976468027,0.002607196916768819,-0.00029952821135979715,0.0007079921164472825,27.399999618530273,36680,,,,3.2513790130615234,2.0595450401306152,8.854657173156738,1.776963472366333e-06,0.001369753386825323,-0.0015970086678862572,35.918235778808594,,,,,,,,,,,,,,,,2779096485
3.2304881281123317,2.013526406407904,9.045915297838677,0.0011241357791174516,-0.0002188610624956613,-0.0001927089317358536,27.399999618530273,36681,,,,3.2298080921173096,2.0211286544799805,8.876045227050781,-0.0010634884238243103,0.0005708043463528156,-0.0010643759742379189,36.012351989746094,,,,,,,,,,,,,,,,2779096485
3.2293733673665086,2.012793355307859,9.047398459479998,0.0006836156483320819,0.0013052593609798333,-0.00019653056787385373,27.399999618530273,36682,,,,3.203443765640259,2.0595450401306152,8.895054817199707,-0.0023950673639774323,-0.0004944605752825737,-0.002662274055182934,35.918235778808594,,,,,,,,,,,,,,,,2779096485
3.2267592999578163,2.0127263642541955,9.051324464600537,0.0006001588382452592,-4.000982281777456e-05,-0.00019151716715623286,27.399999618530273,36683,-19.649999618530273,-20.700000762939453,-57.29999923706055,3.153111696243286,2.0355348587036133,8.91406536102295,-0.0023950673639774323,-0.00022814422845840454,-0.0010643759742379189,35.918235778808594,,,,,,,,,,,,,,,,2779096485
3.2286258821757547,2.0143477570998862,9.047884876121266,0.0019943303172233785,0.0006734643441167346,-0.0008327664058241408,27.399999618530273,36684,,,,3.2417919635772705,2.0235297679901123,8.830894470214844,-0.0045255981385707855,0.0005708043463528156,-0.0021296413615345955,36.012351989746094,,,,,,,,,,,,,,,,2779096485
3.2276601997926413,2.0173503544431726,9.044252910402122,7.226039269487465e-05,0.0016558045949552043,-0.0011012063839566178,27.399999618530273,36685,,,,3.2441890239715576,2.013925552368164,8.838024139404297,-0.0018624365329742432,0.0003044884651899338,-0.0005317442119121552,35.918235778808594,,,,,,,,,,,,,,,,2779096485
3.2271519950932865,2.015356548161884,9.048280727132418,0.0013863905656607257,-0.00022922741696755448,-0.0014613856031091446,27.399999618530273,36686,,,,3.2154276371002197,2.0091235637664795,8.944957733154297,-0.0039929673075675964,-0.0023586738388985395,-0.0018633250147104263,36.012351989746094,,,,,,,,,,,,,,,,2779096485
3.2270827641184274,2.0208991606508966,9.048849004044138,-7.248281103037612e-06,-0.0012915690264022166,0.00035833238352827625,27.399999618530273,36687,-19.799999237060547,-20.700000762939453,-56.70000076293945,3.196253538131714,2.0331337451934814,8.883173942565918,0.0013333596289157867,0.0019023856148123741,-0.0029285894706845284,36.012351989746094,,,,,,,,,,,,,,,,2779096485
3.230468540082728,2.0186160068498795,9.044336414603153,0.002452567127038747,0.0017041542842133233,-0.0008356892251004163,27.5,36688,,,,3.2274115085601807,2.013925552368164,8.935452461242676,-0.003460332751274109,0.0003044884651899338,0.0002672048285603523,36.012351989746094,,,,,,,,,,,,,,,,2779096485
3.225184893387553,2.0173828406181915,9.044876856781196,0.0006222763909463701,0.0009879770087909594,-0.00046458438765092317,27.5,36689,,,,3.2585694789886475,2.0355348587036133,8.916441917419434,-0.0015961192548274994,-0.0007607764564454556,-0.0010643759742379189,35.918235778808594,,,,,,,,,,,,,,,,2779096485
3.230425999667291,2.0177973103793314,9.051369373795007,-0.000508049062748088,-0.0003598221780248363,-0.000637037382853865,27.5,36690,,,,3.2705533504486084,2.0595450401306152,8.804756164550781,-0.0005308538675308228,-0.0023586738388985395,-0.002662274055182934,35.918235778808594,,,,,,,,,,,,,,,,2779096485
3.2281559189922104,2.0192325338906234,9.046017483069022,0.0021570028533902177,0.001197494548210362,-0.00038328473803224015,27.399999618530273,36691,-19.200000762939453,-20.850000381469727,-57.150001525878906,3.2873306274414062,2.07635235786438,8.956838607788086,1.776963472366333e-06,-0.0010270928032696247,-0.0031949058175086975,35.918235778808594,,,,,,,,,,,,,,,,2779096485
3.228716383358332,2.022273337069202,9.04767138931827,0.0014493676671055804,-0.0007138162055881601,-0.00046602915253236236,27.30000114440918,36692,,,,3.2058403491973877,2.049940824508667,8.899807929992676,-0.0031940191984176636,0.0003044884651899338,-0.003993854857981205,36.012351989746094,,,,,,,,,,,,,,,,2779096485
3.2277641584001375,2.019635713864818,9.045163423770864,0.0008389312020381364,-0.0008048430510215103,-0.0005541464944947951,27.30000114440918,36693,,,,3.172285795211792,2.0955605506896973,8.921195030212402,-0.003460332751274109,-0.0007607764564454556,-0.001330692321062088,36.012351989746094,,,,,,,,,,,,,,,,2779096485
3.2215946019462267,2.0172259051029693,9.043471856566521,0.0016187114217572221,0.0007439781913947197,0.002244968949996782,27.30000114440918,36694,,,,3.2489824295043945,2.0475399494171143,8.933075904846191,-0.002661384642124176,-0.002092357724905014,-0.0031949058175086975,35.918235778808594,,,,,,,,,,,,,,,,2779096485
3.2282778208329312,2.0184701368212004,9.046788337062617,0.000576410099387685,-0.00045092891829033935,-0.001097817511492781,27.30000114440918,36695,-20.100000381469727,-21.299999237060547,-57.599998474121094,3.2202212810516357,1.9947174787521362,8.814261436462402,-0.0031940191984176636,-0.004489203914999962,-0.0010643759742379189,36.012351989746094,,,,,,,,,,,,,,,,2779096485
3.222069835954531,2.020010594604848,9.047793339077629,0.0014442077925290117,0.0010820531736514946,-0.00020064515172975002,27.30000114440918,36696,,,,3.2058403491973877,2.0691492557525635,8.876045227050781,0.0005344115197658539,0.0008371206931769848,-0.00559175293892622,36.012351989746094,,,,,,,,,,,,,,,,2779096485
3.2307171286263623,2.0148523208561873,9.049993403899885,-0.00010950035045392912,0.00022701867994666045,0.0018013728681735093,27.399999618530273,36697,,,,3.2801403999328613,2.064347267150879,8.966343879699707,-0.0013298019766807556,-0.00022814422845840454,-0.0031949058175086975,35.918235778808594,,,,,,,,,,,,,,,,2779096485
3.230259127598301,2.0193182914113286,9.044103611615848,0.0013234068063131914,-0.00025926787385720327,0.00044292769497328364,27.5,36698,,,,3.2585694789886475,2.040337085723877,8.942581176757812,-0.002128753811120987,0.0003044884651899338,-0.004260171204805374,35.918235778808594,,,,,,,,,,,,,,,,2779096485
3.2288817975396227,2.0229585748000307,9.04244268129958,0.0006873707054432881,4.5198015673741584e-05,-0.0007354611581640762,27.5,36699,-19.049999237060547,-21.299999237060547,-57.599998474121094,3.157905101776123,2.0451390743255615,8.918818473815918,-0.003460332751274109,0.001636069267988205,-0.0023959577083587646,35.82411575317383,,,,,,,,,,,,,,,,2779096485
3.226317111404034,2.0184067719573844,9.048034062821364,0.0006865451255110371,0.0004001308075148669,-0.0011894901734860364,27.5,36700,,,,3.2154276371002197,1.985113263130188,8.840400695800781,-0.0037266500294208527,-0.0023586738388985395,0.002397734671831131,35.918235778808594,,,,,,,,,,,,,,,,2779096485
3.222463615160342,2.022264252902885,9.046493326247697,0.0006837421484829913,0.001049109871193609,0.0013438351381394823,27.5,36701,,,,3.2441890239715576,2.0907585620880127,8.816637992858887,-0.0005308538675308228,0.001369753386825323,-0.005059119313955307,36.012351989746094,,,,,,,,,,,,,,,,2779096485
3.225071851018237,2.0201352682454545,9.043236998665991,0.0010353459889843953,0.000404252049273442,-0.0007379312400581494,27.5,36702,,,,3.177079439163208,2.0307328701019287,8.899807929992676,-0.0045255981385707855,-0.0010270928032696247,-0.001330692321062088,35.918235778808594,,,,,,,,,,,,,,,,2779096485
3.226537514118811,2.016750089181639,9.042886168935484,0.0015553281882489214,0.0017438886474042412,-0.0014689023752342358,27.5,36703,-19.649999618530273,-20.850000381469727,-56.54999923706055,3.2178242206573486,2.0355348587036133,8.897431373596191,0.0008007250726222992,0.0005708043463528156,-0.0029285894706845284,35.918235778808594,,,,,,,,,,,,,,,,2779096485
3.223512770959687,2.0184152206058927,9.048576896171157,7.163454984300717e-05,3.2321631891697906e-05,-0.0010959466408398573,27.399999618530273,36704,,,,3.2393951416015625,2.0355348587036133,8.809508323669434,-0.0031940191984176636,0.0005708043463528156,-0.0010643759742379189,35.918235778808594,,,,,,,,,,,,,,,,2779096485
3.2224555407053908,2.0198187429935763,9.047630477864072,-0.0012933087363723558,-0.0005285667214353284,0.0007246435310485704,27.399999618530273,36705,,,,3.2369985580444336,2.1051645278930664,8.87842082977295,0.0018659904599189758,-0.0010270928032696247,-0.0018633250147104263,35.918235778808594,,,,,,,,,,,,,,,,2779096485
3.225778552735141,2.0213023780084916,9.047066833847625,0.0017591066155586443,9.001235860907515e-05,-0.000737052396904463,27.399999618530273,36706,,,,3.210634231567383,2.0187277793884277,8.971096992492676,-0.0045255981385707855,-0.003690255107358098,-0.0007980605587363243,35.918235778808594,,,,,,,,,,,,,,,,2779096485
3.2277675227563667,2.0176327112670105,9.049806182624106,0.0018277229605729876,-0.00022307551489174956,-0.001824714010229048,27.399999618530273,36707,-20.549999237060547,-21.0,-56.54999923706055,3.208237409591675,2.016326665878296,8.873668670654297,-0.0007971711456775665,-0.0026249901857227087,-0.000265427865087986,36.012351989746094,,,,,,,,,,,,,,,,2779096485
3.2233954670724803,2.016481526832578,9.052216857370846,0.0012139375704577837,-0.0012007019706331739,0.00035376506229017803,27.30000114440918,36708,,,,3.196253538131714,2.109966516494751,8.94970989227295,-0.00026454031467437744,-0.001559725496917963,0.0007998375222086906,36.012351989746094,,,,,,,,,,,,,,,,2779096485
3.222083704578544,2.01668033175634,9.048117268125925,0.00027961411374345874,-0.0012543380346187695,-0.0004555229821042008,27.30000114440918,36709,,,,3.2130308151245117,2.0667481422424316,8.952086448669434,-0.003460332751274109,0.0027013346552848816,-0.000265427865087986,35.918235778808594,,,,,,,,,,,,,,,,2779096485
3.2220540608619874,2.015631689989429,9.050450117704544,0.0006524566637922868,-0.0008405094356752881,0.0007213012639034899,27.399999618530273,36710,,,,3.203443765640259,2.0955605506896973,8.935452461242676,0.0023986250162124634,-0.006087101064622402,-0.0034612221643328667,36.012351989746094,,,,,,,,,,,,,,,,2779096485
3.2246288774480014,2.016031318540578,9.054180457724053,0.0009375413986233722,9.324809931128379e-05,-0.00027673832145310795,27.5,36711,-19.350000381469727,-20.25,-56.54999923706055,3.2513790130615234,2.0091235637664795,8.895054817199707,-0.002128753811120987,-0.0023586738388985395,-0.0015970086678862572,36.012351989746094,,,,,,,,,,,,,,,,2779096485
3.2247648722031506,2.0171213437318225,9.047802193885524,6.452390978136172e-05,0.0004420156732712448,-0.0013616235893603654,27.5,36712,,,,3.2585694789886475,2.025930643081665,8.999611854553223,-0.0039929673075675964,-0.0012934091500937939,-0.0018633250147104263,35.918235778808594,,,,,,,,,,,,,,,,2779096485
3.227590071656121,2.0121117811502773,9.049432038969014,0.0015310734487877092,0.0006124313502542779,0.0006235233051531846,27.5,36713,,,,3.2513790130615234,2.0547430515289307,8.897431373596191,-0.0005308538675308228,0.0005708043463528156,-0.0018633250147104263,35.82411575317383,,,,,,,,,,,,,,,,2779096485
3.2240778332793227,2.013793510804345,9.052430269449724,0.0014989557262620745,-0.0005342059650048168,-0.00028117248463761747,27.30000114440918,36714,-20.100000381469727,-20.850000381469727,-56.400001525878906,3.2178242206573486,2.0691492557525635,8.897431373596191,-0.0015961192548274994,-0.0018260413780808449,-0.0031949058175086975,36.012351989746094,,,,,,,,,,,,,,,,2779096485
3.225694219538984,2.0177444876344506,9.053459743613136,0.0007122912351724443,-0.00016714913238442472,0.0008069618397772082,27.30000114440918,36715,,,,3.16030216217041,2.0355348587036133,8.897431373596191,-0.005058232694864273,-0.0012934091500937939,-0.006124383769929409,36.012351989746094,,,,,,,,,,,,,,,,2779096485
3.228894769001975,2.0129027391376684,9.049827964704287,0.000893106556140767,-0.0005228409251310066,8.357405575300757e-05,27.399999618530273,36716,,,,3.18906307220459,2.028331995010376,8.873668670654297,-0.0007971711456775665,-0.002092357724905014,-0.0015970086678862572,36.012351989746094,,,,,,,,,,,,,,,,2779096485
3.22893659916443,2.0186653155551153,9.047601073923934,0.0012580728073198137,0.0009495742261359302,0.00026005508207701286,27.399999618530273,36717,,,,3.2154276371002197,2.0331337451934814,8.857033729553223,-0.004259280860424042,-0.001559725496917963,-0.0005317442119121552,36.012351989746094,,,,,,,,,,,,,,,,2779096485
3.2248077116724745,2.0149693308996945,9.053854884745176,0.001001017842769185,-0.0008366744837319286,0.0011727936183045823,27.399999618530273,36718,-19.649999618530273,-20.700000762939453,-56.70000076293945,3.191459894180298,2.049940824508667,8.871292114257812,0.0008007250726222992,0.0003044884651899338,-0.0034612221643328667,36.012351989746094,,,,,,,,,,,,,,,,2779096485
3.2274763937972955,2.01388700668895,9.048620011986813,0.0003689165623828325,-0.0002550667372664744,-6.101235436414831e-06,27.399999618530273,36719,,,,3.2298080921173096,2.0451390743255615,8.906936645507812,-0.0010634884238243103,0.0003044884651899338,0.0005335211753845215,35.918235778808594,,,,,,,,,,,,,,,,2779096485
3.2298653857742257,2.013904502120375,9.050129738051817,0.0015006068861265764,-0.0012440515749790292,0.0006268855460063035,27.399999618530273,36720,,,,3.193856716156006,2.049940824508667,8.937828063964844,0.0002680942416191101,-0.0018260413780808449,-0.004526487551629543,35.918235778808594,,,,,,,,,,,,,,,,2779096485
3.2286632265299042,2.0134211721355477,9.042112064442787,0.0005381804222023209,-6.154387692805345e-06,-0.0013663706739708084,27.399999618530273,36721,,,,3.2178242206573486,2.1171696186065674,8.906936645507812,-0.0039929673075675964,-0.001559725496917963,-0.001330692321062088,35.918235778808594,,,,,,,,,,,,,,,,2779096485
3.229885721438547,2.01612073963453,9.044114932319612,0.0018425168203267108,0.0012673026578043254,0.0006168787182791002,27.399999618530273,36722,-18.899999618530273,-21.299999237060547,-56.54999923706055,3.208237409591675,2.0595450401306152,8.91406536102295,0.0008007250726222992,0.0019023856148123741,-0.0029285894706845284,35.82411575317383,,,,,,,,,,,,,,,,2779096485
3.2277330941776166,2.016736743307667,9.051126184155402,0.0011751286557393084,-0.0004906765972866158,-0.0003684975361811964,27.5,36723,,,,3.191459894180298,2.013925552368164,8.897431373596191,0.0002680942416191101,0.0005708043463528156,-0.0031949058175086975,36.012351989746094,,,,,,,,,,,,,,,,2779096485
3.2282029825976895,2.0144565801786882,9.049477956939066,0.001259337808828908,0.000501184454383458,0.0002616263471093615,27.5,36724,,,,3.2322051525115967,2.025930643081665,8.94970989227295,-0.0023950673639774323,-0.003423938760533929,-0.0010643759742379189,35.918235778808594,,,,,,,,,,,,,,,,2779096485
3.2279695336570886,2.0164975269279846,9.049728469542162,0.0013458106488295183,0.0006015589951787461,0.0015287717008663805,27.5,36725,,,,3.155508279800415,2.0811543464660645,8.956838607788086,-0.002661384642124176,-0.00022814422845840454,0.0002672048285603523,35.918235778808594,,,,,,,,,,,,,,,,2779096485
3.2291225359187217,2.0149380036100912,9.042919458529719,0.0022896282747647293,0.0011837592949826706,-0.0008323935632740921,27.5,36726,-18.899999618530273,-21.149999618530273,-56.70000076293945,3.162698745727539,2.049940824508667,8.833271026611328,-0.0031940191984176636,-0.0023586738388985395,-0.001330692321062088,36.012351989746094,,,,,,,,,,,,,,,,2779096485
3.227625546923476,2.0187258018970944,9.042028037172935,0.0012372602035438738,-0.0004508423655555068,-0.0010050130060440198,27.399999618530273,36727,,,,3.2130308151245117,2.0427379608154297,8.816637992858887,-0.0010634884238243103,0.0005708043463528156,-0.0031949058175086975,36.012351989746094,,,,,,,,,,,,,,,,2779096485
3.2290211566510014,2.0151612198943676,9.048862566471419,0.0002759256356590473,-8.016363387749765e-05,0.0005364978592301804,27.399999618530273,36728,,,,3.2154276371002197,2.0331337451934814,8.816637992858887,-0.0013298019766807556,-0.0018260413780808449,8.884817361831665e-07,35.918235778808594,,,,,,,,,,,,,,,,2779096485
3.23061795488106,2.0155143061119167,9.045311937953906,0.0007348149199370014,0.0017723511813588612,-0.0012882135544168226,27.399999618530273,36729,,,,3.2274115085601807,2.0187277793884277,8.975849151611328,-0.0010634884238243103,-0.0023586738388985395,-0.006657016463577747,35.918235778808594,,,,,,,,,,,,,,,,2779096485
3.230330825767728,2.0173065037144076,9.047584036825198,0.0003756676756997883,-0.00021145747471612054,0.0006203275118670519,27.399999618530273,36730,-19.649999618530273,-20.850000381469727,-56.54999923706055,3.196253538131714,2.1027636528015137,8.847529411315918,-0.0018624365329742432,-0.0018260413780808449,-0.0005317442119121552,36.012351989746094,,,,,,,,,,,,,,,,2779096485
3.2268840054287278,2.0160721785973044,9.046783517357053,0.0003742295687210284,0.00040947850287680575,-0.00019685680510514664,27.399999618530273,36731,,,,3.2513790130615234,2.0691492557525635,8.916441917419434,-0.00026454031467437744,-0.0012934091500937939,-0.00559175293892622,36.012351989746094,,,,,,,,,,,,,,,,2779096485
3.224252592894584,2.019936538088494,9.05034733468126,0.0013319821849643145,0.0009575836830593007,0.0008845730113114794,27.399999618530273,36732,,,,3.18906307220459,2.1027636528015137,8.859410285949707,-0.0005308538675308228,3.817211836576462e-05,0.0010661538690328598,35.918235778808594,,,,,,,,,,,,,,,,2779096485
3.224230836724299,2.0169656044854154,9.04652837185869,-0.00023634671230268398,0.0003214810031626023,7.724239030485695e-05,27.399999618530273,36733,,,,3.208237409591675,2.0307328701019287,8.916441917419434,0.0005344115197658539,-0.002092357724905014,-0.0087875472381711,36.012351989746094,,,,,,,,,,,,,,,,2779096485
3.223896868295904,2.0167552107075046,9.046082530413091,-0.00014430786566205873,-0.0013823495294364267,8.290160758238395e-05,27.399999618530273,36734,-18.75,-21.149999618530273,-57.75,3.2274115085601807,2.071550130844116,8.861786842346191,-0.002128753811120987,-0.0023586738388985395,-0.0005317442119121552,35.918235778808594,,,,,,,,,,,,,,,,2779096485
3.2280786883258723,2.0176466552753904,9.040495781786579,0.0008027055535592851,0.0015554367120625958,-0.001561180906371321,27.399999618530273,36735,,,,3.2369985580444336,2.071550130844116,8.873668670654297,0.001067042350769043,-0.0012934091500937939,-0.0015970086678862572,35.918235778808594,,,,,,,,,,,,,,,,2779096485
3.227258308750143,2.0195519002809386,9.045829701362361,0.0005227673774994097,0.0006355808778707025,-1.9310514352430686e-05,27.30000114440918,36736,,,,3.201046943664551,1.985113263130188,8.873668670654297,-0.002128753811120987,0.0003044884651899338,-0.0007980605587363243,35.918235778808594,,,,,,,,,,,,,,,,2779096485
3.224367504350694,2.019064084288053,9.048506655500937,-0.0002632912444463912,0.0008210034674932002,0.0007977805919822556,27.30000114440918,36737,,,,3.2705533504486084,2.071550130844116,8.956838607788086,-0.0018624365329742432,-0.00022814422845840454,0.0002672048285603523,36.012351989746094,,,,,,,,,,,,,,,,2779096485
3.223405485377697,2.018297500277776,9.050672235143082,0.0004361081162237751,0.000538988025797338,-0.000833685196393904,27.30000114440918,36738,-20.25,-21.0,-56.849998474121094,3.2513790130615234,2.040337085723877,8.921195030212402,-0.0018624365329742432,-0.0018260413780808449,0.0002672048285603523,35.918235778808594,,,,,,,,,,,,,,,,2779096485
3.221342798573306,2.0165676208038876,9.049860394971175,0.0001929415366624652,0.0009437685349994564,0.00043533768591871814,27.30000114440918,36739,,,,3.148318290710449,2.037935733795166,8.909313201904297,-0.0015961192548274994,-0.004489203914999962,-0.003727538511157036,36.012351989746094,,,,,,,,,,,,,,,,2779096485
3.2203667240676164,2.017592823178697,9.04526504857033,0.001071298663453389,0.000682226144042882,0.00016199083351149147,27.30000114440918,36740,,,,3.2130308151245117,2.0355348587036133,8.868915557861328,-0.002128753811120987,-0.004222887568175793,-0.001330692321062088,35.918235778808594,,,,,,,,,,,,,,,,2779096485
3.2260249731380934,2.017273082954377,9.04223853501124,0.0003321516237869463,0.00022801736534857654,0.0008041588627491624,27.30000114440918,36741,,,,3.186666488647461,2.0787534713745117,8.933075904846191,-0.0005308538675308228,-0.002092357724905014,-0.007189649157226086,35.918235778808594,,,,,,,,,,,,,,,,2779096485
3.2225398365198115,2.0165745741163774,9.050336611770437,0.0015242890459573565,-0.0005785076494338329,-0.00018828808435670304,27.399999618530273,36742,-19.950000762939453,-20.399999618530273,-56.54999923706055,3.2226178646087646,2.001920461654663,8.864163398742676,-0.0005308538675308228,-0.005288152489811182,0.002397734671831131,35.918235778808594,,,,,,,,,,,,,,,,2779096485
3.2282464575565237,2.015571540098054,9.052662026299389,0.0017820763798027238,0.0006012261000447744,0.0014366995647123583,27.399999618530273,36743,,,,3.2298080921173096,2.07635235786438,8.92357063293457,-0.0010634884238243103,-0.0004944605752825737,-0.0021296413615345955,35.82411575317383,,,,,,,,,,,,,,,,2779096485
3.2287829602299434,2.016465900571177,9.0493105001923,0.0006452128656770527,0.0019225601237097831,-0.0012807034401944107,27.399999618530273,36744,,,,3.201046943664551,2.028331995010376,8.940204620361328,0.0018659904599189758,-0.0031576226465404034,-0.0021296413615345955,35.918235778808594,,,,,,,,,,,,,,,,2779096485
3.2258425128852393,2.0163707972003517,9.044892735656111,0.0007402078211073502,-0.0008558825329621229,-0.0010901609234114209,27.399999618530273,36745,-19.649999618530273,-20.850000381469727,-56.70000076293945,3.2202212810516357,2.064347267150879,8.935452461242676,-0.0039929673075675964,3.817211836576462e-05,0.002131418325006962,36.012351989746094,,,,,,,,,,,,,,,,2779096485
3.226054317800763,2.016338759626139,9.045129573745749,0.00012535716656343577,0.0007493977241757868,-0.0020897917475084056,27.399999618530273,36746,,,,3.191459894180298,2.0907585620880127,8.876045227050781,0.0005344115197658539,-0.004222887568175793,-0.002662274055182934,35.918235778808594,,,,,,,,,,,,,,,,2779096485
3.2248366451360493,2.019622741824851,9.04782513418952,0.0014350864658581744,-3.142112836129231e-05,0.0008967902627282579,27.399999618530273,36747,,,,3.165095567703247,2.0475399494171143,8.880797386169434,-0.0007971711456775665,0.0021687019616365433,-0.0023959577083587646,36.012351989746094,,,,,,,,,,,,,,,,2779096485
3.2268420631210653,2.015896588765242,9.047581645653446,0.0001500912750175675,0.0007300964643080802,0.0009010047151243455,27.5,36748,,,,3.2298080921173096,2.085956335067749,8.987730979919434,-0.0013298019766807556,-0.0023586738388985395,0.0005335211753845215,35.918235778808594,,,,,,,,,,,,,,,,2779096485
3.230846469432524,2.013844240078799,9.0469651716861,0.0004125524565439043,0.0005464448767983146,0.0003573936192504748,27.5,36749,-19.5,-21.149999618530273,-57.0,3.2561726570129395,2.0547430515289307,8.845152854919434,-0.002128753811120987,-0.0018260413780808449,-0.004526487551629543,36.012351989746094,,,,,,,,,,,,,,,,2779096485
3.228357742984253,2.011934546448594,9.05468073568907,6.498330506624333e-05,9.467954838736446e-05,-2.039914801954361e-06,27.5,36750,,,,3.2250146865844727,2.049940824508667,8.899807929992676,-0.0018624365329742432,-0.0023586738388985395,-0.004260171204805374,35.918235778808594,,,,,,,,,,,,,,,,2779096485
3.227016112483345,2.017525869508434,9.05261678084639,-4.482548382581629e-05,-0.0011087097293113052,0.0009057784313455065,27.399999618530273,36751,,,,3.2369985580444336,2.0571441650390625,8.864163398742676,-0.0010634884238243103,-0.001559725496917963,-0.0029285894706845284,36.012351989746094,,,,,,,,,,,,,,,,2779096485
3.231470520131386,2.0128815801329956,9.053326585236189,0.0002745341339990435,0.0006243756276611981,-0.0010054391118155042,27.30000114440918,36752,,,,3.2130308151245117,2.0475399494171143,8.921195030212402,-0.002661384642124176,-0.0012934091500937939,-0.0047928038984537125,36.012351989746094,,,,,,,,,,,,,,,,2779096485
3.226146164725832,2.015273519629414,9.045930691006832,0.0005355106032278643,0.0008936678173366444,-0.001007296666663069,27.30000114440918,36753,-19.350000381469727,-21.0,-56.54999923706055,3.2058403491973877,2.0451390743255615,8.94970989227295,0.0034638866782188416,-0.0012934091500937939,-0.0023959577083587646,35.918235778808594,,,,,,,,,,,,,,,,2779096485
3.2246973234064065,2.014082148039464,9.047617363781495,0.0011582841619603166,2.5930045319432632e-05,0.00026229213737730584,27.399999618530273,36754,,,,3.2417919635772705,2.0667481422424316,8.904560089111328,-0.0010634884238243103,-0.0026249901857227087,0.002131418325006962,36.012351989746094,,,,,,,,,,,,,,,,2779096485
3.2282524386342657,2.0121752581642953,9.048513754292076,0.0006496470288615617,0.0003949909066463366,-0.0016375803396179336,27.399999618530273,36755,,,,3.196253538131714,2.016326665878296,8.866539001464844,-0.0010634884238243103,-0.0026249901857227087,-0.002662274055182934,35.918235778808594,,,,,,,,,,,,,,,,2779096485
3.228227093817335,2.0135769113819544,9.048462941892344,0.0005611302127383625,0.000674556240156163,-0.0003704549595689526,27.399999618530273,36756,,,,3.167492151260376,2.0595450401306152,8.859410285949707,-0.002128753811120987,-0.00022814422845840454,0.0010661538690328598,35.918235778808594,,,,,,,,,,,,,,,,2779096485
3.230926129911695,2.016272777924289,9.049925890659946,-0.00013107861303800466,0.00041694201178046116,-4.430101863874686e-06,27.5,36757,-20.100000381469727,-21.450000762939453,-56.70000076293945,3.2130308151245117,2.071550130844116,9.025751113891602,-0.0013298019766807556,-0.001559725496917963,-0.0031949058175086975,36.012351989746094,,,,,,,,,,,,,,,,2779096485
3.230408542396633,2.0136515660327166,9.041946587885128,0.0008510885323307999,-0.00026099892855385894,0.0002681444338325364,27.5,36758,,,,3.330472469329834,2.025930643081665,8.852282524108887,0.0002680942416191101,-0.003423938760533929,-0.0031949058175086975,35.918235778808594,,,,,,,,,,,,,,,,2779096485
3.2294702982076586,2.0186758202906505,9.044362979026838,0.00100251587087206,-0.0011208803754093272,-0.0006373569621824782,27.5,36759,,,,3.2346017360687256,2.0475399494171143,8.928322792053223,-0.0005308538675308228,-0.0010270928032696247,0.0010661538690328598,35.918235778808594,,,,,,,,,,,,,,,,2779096485
3.231837758304719,2.014152690516173,9.0542787573003,0.00020782860705370046,0.00022827036565039541,0.0009902472426396042,27.5,36760,,,,3.2226178646087646,2.0691492557525635,8.88792610168457,0.0002680942416191101,-0.0018260413780808449,-0.0029285894706845284,35.918235778808594,,,,,,,,,,,,,,,,2779096485
3.2321195044480833,2.0161418612558024,9.053647786854205,0.0010340743295726212,0.0006839105934207815,0.0005288878764675767,27.30000114440918,36761,-19.799999237060547,-20.850000381469727,-56.25,3.2369985580444336,2.028331995010376,8.885550498962402,-0.002661384642124176,-0.0018260413780808449,-0.0034612221643328667,35.918235778808594,,,,,,,,,,,,,,,,2779096485
3.2321992023089896,2.0171656430613925,9.048724326854499,-0.0002710477010679428,-0.000657996349523707,0.0010814804830560167,27.30000114440918,36762,,,,3.203443765640259,2.0331337451934814,8.928322792053223,0.0002680942416191101,-0.0004944605752825737,-0.0021296413615345955,35.918235778808594,,,,,,,,,,,,,,,,2779096485
3.232624456936416,2.015936402086755,9.051150843114096,-0.0003541716160207929,-0.0019257275987165177,-0.00036269184504472175,27.30000114440918,36763,,,,3.2801403999328613,2.0787534713745117,8.94970989227295,-0.0039929673075675964,0.0005708043463528156,8.884817361831665e-07,35.918235778808594,,,,,,,,,,,,,,,,2779096485
3.2320227978973493,2.0178640771325917,9.04947138121675,0.0013853386170373735,4.587712174704446e-05,-0.000737891292642073,27.30000114440918,36764,,,,3.18906307220459,1.997118353843689,8.963967323303223,-0.002128753811120987,-0.001559725496917963,-0.004260171204805374,35.918235778808594,,,,,,,,,,,,,,,,2779096485
3.229207205550501,2.0154066045351287,9.049315207811686,0.0008619209399902544,-0.00020926036683190444,0.000985406947391649,27.30000114440918,36765,-18.899999618530273,-20.850000381469727,-56.70000076293945,3.2298080921173096,1.9995192289352417,8.944957733154297,-0.0005308538675308228,-0.0031576226465404034,-0.0005317442119121552,35.918235778808594,,,,,,,,,,,,,,,,2779096485
3.2311913159460617,2.0175825801269647,9.044126626643962,0.0004274262111297806,-0.0007523121988807016,0.00044548432960218984,27.30000114440918,36766,,,,3.210634231567383,2.0955605506896973,8.892678260803223,-0.002661384642124176,-0.003690255107358098,8.884817361831665e-07,35.918235778808594,,,,,,,,,,,,,,,,2779096485
3.2296728324526827,2.01480439533677,9.045500803160268,0.00028554630503084284,0.00028594777656241327,-0.000731719416858229,27.5,36767,,,,3.2441890239715576,2.049940824508667,8.973472595214844,0.0002680942416191101,-0.0010270928032696247,8.884817361831665e-07,35.918235778808594,,,,,,,,,,,,,,,,2779096485
3.226731001983751,2.017605197084256,9.04795657391177,0.0011740367596998797,-0.00021481971556923905,0.0004455509086289842,27.5,36768,,,,3.2537758350372314,2.0451390743255615,8.885550498962402,-0.0037266500294208527,-0.0031576226465404034,-0.0018633250147104263,35.918235778808594,,,,,,,,,,,,,,,,2779096485
3.229662739383994,2.015324473204271,9.05227088290762,0.0003857011350377093,0.0010315796134386336,-0.0005522157027177564,27.5,36769,-19.649999618530273,-20.399999618530273,-56.70000076293945,3.169888973236084,2.071550130844116,8.892678260803223,-0.0010634884238243103,-0.0007607764564454556,-0.000265427865087986,35.918235778808594,,,,,,,,,,,,,,,,2779096485
3.2270442983122023,2.0177727868686155,9.051668718608726,-4.723564459577483e-05,-5.0296282457514864e-05,-0.0011808082683920423,27.5,36770,,,,3.2513790130615234,2.0331337451934814,8.92357063293457,-0.0010634884238243103,0.001636069267988205,0.0034629995934665203,35.918235778808594,,,,,,,,,,,,,,,,2779096485
3.2297361197315357,2.0144283930947253,9.047514020327332,0.001263798603624135,-0.0007732779344182686,-0.0019978394536026133,27.5,36771,,,,3.2489824295043945,2.052342176437378,8.944957733154297,-0.00026454031467437744,-0.0018260413780808449,-0.000265427865087986,35.918235778808594,,,,,,,,,,,,,,,,2779096485
3.2226291041051045,2.0166371165453834,9.049831925082499,0.0010858594966133318,0.00014229021044806413,0.00026349055985960563,27.5,36772,,,,3.2322051525115967,2.025930643081665,8.866539001464844,-0.0037266500294208527,-0.0007607764564454556,-0.0047928038984537125,35.82411575317383,,,,,,,,,,,,,,,,2779096485
3.2278561174704143,2.0167159955203995,9.041122044613285,-6.461277058912194e-05,0.00039424522154623935,0.0015330394164839037,27.5,36773,-19.5,-20.850000381469727,-55.650001525878906,3.2226178646087646,2.0811543464660645,8.880797386169434,-0.0007971711456775665,0.0008371206931769848,-0.0015970086678862572,36.012351989746094,,,,,,,,,,,,,,,,2779096485
3.226243432002605,2.0162820490076085,9.046061495574085,0.0004216072041879474,0.0011415748236057186,0.0017066508867530686,27.30000114440918,36774,,,,3.191459894180298,2.0091235637664795,8.883173942565918,-0.0013298019766807556,-0.0031576226465404034,-0.00559175293892622,35.918235778808594,,,,,,,,,,,,,,,,2779096485
3.2261450432737555,2.0158641025902235,9.043891432484903,0.0010322367484330952,0.001397551207922276,7.360717544188091e-05,27.30000114440918,36775,,,,3.210634231567383,2.0907585620880127,8.918818473815918,-0.0037266500294208527,3.817211836576462e-05,0.0007998375222086906,36.012351989746094,,,,,,,,,,,,,,,,2779096485
3.2272088153318315,2.0186662501401273,9.04310391501316,0.0005130002342686661,0.00012713016604697178,-0.0016407162117799512,27.30000114440918,36776,,,,3.2154276371002197,2.0187277793884277,8.937828063964844,-0.0018624365329742432,0.0008371206931769848,-0.001330692321062088,36.012351989746094,,,,,,,,,,,,,,,,2779096485
3.225233564407675,2.02064095350377,9.046298296301664,0.0009478078845550739,0.00041023750378226236,-1.3191901790022068e-05,27.30000114440918,36777,-19.649999618530273,-20.399999618530273,-56.400001525878906,3.2226178646087646,2.040337085723877,8.854657173156738,-0.0013298019766807556,-0.0012934091500937939,-0.002662274055182934,35.918235778808594,,,,,,,,,,,,,,,,2779096485
3.2270749887173635,2.0194708904520944,9.04791980964608,0.004350249154052449,0.0005853137126409043,-0.0009311968390370313,27.30000114440918,36778,,,,3.2130308151245117,2.0427379608154297,8.84277629852295,-0.003460332751274109,3.817211836576462e-05,-0.0029285894706845284,35.918235778808594,,,,,,,,,,,,,,,,2779096485
3.224253602201453,2.0188486063676767,9.053862282432783,0.0002464777321078693,0.0014925328475472151,0.000800457068859392,27.30000114440918,36779,,,,3.301711082458496,2.040337085723877,8.935452461242676,-0.00026454031467437744,-0.006087101064622402,-0.0029285894706845284,35.918235778808594,,,,,,,,,,,,,,,,2779096485
3.222860758722383,2.019280309876439,9.052674430502853,0.0011485702819510088,1.2625158920948065e-06,-0.0005535073358375686,27.399999618530273,36780,,,,3.2393951416015625,2.088357448577881,8.91406536102295,-0.002128753811120987,-0.0023586738388985395,0.0005335211753845215,35.918235778808594,,,,,,,,,,,,,,,,2779096485
3.223497182775823,2.0189379526948277,9.054007023047905,0.0010572038834810076,0.0013531829444664656,0.0002570723416766222,27.399999618530273,36781,-19.200000762939453,-20.399999618530273,-56.70000076293945,3.2393951416015625,2.0667481422424316,8.876045227050781,0.001067042350769043,-0.002891306299716234,-0.003727538511157036,35.918235778808594,,,,,,,,,,,,,,,,2779096485
3.2231832509578617,2.0197199386661033,9.048934637882512,0.0004524665831071675,-0.0007981918062447465,0.00044784788505339225,27.399999618530273,36782,,,,3.2202212810516357,2.028331995010376,8.925946235656738,-0.004259280860424042,-0.0007607764564454556,0.0005335211753845215,36.012351989746094,,,,,,,,,,,,,,,,2779096485
3.2259275563343777,2.019743490208407,9.048304227867295,0.001322288278663045,0.00010172360942221556,0.0007133384122988756,27.399999618530273,36783,,,,3.196253538131714,2.0451390743255615,8.897431373596191,-0.0045255981385707855,-0.002092357724905014,-0.002662274055182934,35.918235778808594,,,,,,,,,,,,,,,,2779096485
3.2264275370518374,2.0208911232197933,9.042489608045214,0.0013216890674218951,2.9478707447575664e-05,0.002796409739421678,27.399999618530273,36784,,,,3.196253538131714,2.0451390743255615,8.88792610168457,0.0013333596289157867,0.001369753386825323,-0.0005317442119121552,35.918235778808594,,,,,,,,,,,,,,,,2779096485
3.224113570218828,2.019692873084155,9.047209781083932,0.002108047294988271,6.735311894596856e-06,-1.3518139021314983e-05,27.399999618530273,36785,-19.350000381469727,-19.950000762939453,-57.29999923706055,3.2537758350372314,2.07635235786438,8.916441917419434,0.001067042350769043,-0.0039565712213516235,0.0015987856313586235,36.012351989746094,,,,,,,,,,,,,,,,2779096485
3.2268960797294186,2.020134333660442,9.04880895191729,0.0007982514166667374,0.000450830736418828,-0.00037275859389604036,27.399999618530273,36786,,,,3.2250146865844727,2.0187277793884277,8.904560089111328,-0.0023950673639774323,0.0021687019616365433,-0.0021296413615345955,35.918235778808594,,,,,,,,,,,,,,,,2779096485
3.228395797591384,2.0169887821937142,9.049498804967781,0.0018462718774379168,7.241312498234599e-06,7.794812798887795e-05,27.399999618530273,36787,,,,3.2441890239715576,2.052342176437378,8.830894470214844,-0.0037266500294208527,-0.0018260413780808449,-0.0007980605587363243,35.918235778808594,,,,,,,,,,,,,,,,2779096485
3.2280835479515373,2.0117480780469914,9.041984659822868,0.0010594675703920185,0.0004617030914943589,0.0008941004700457628,27.399999618530273,36788,-19.5,-20.25,-56.54999923706055,3.2441890239715576,2.0115246772766113,8.940204620361328,0.0002680942416191101,-0.0007607764564454556,-0.001330692321062088,36.012351989746094,,,,,,,,,,,,,,,,2779096485
3.2231117396971136,2.0179321149214684,9.04690718577111,0.00017872025653917429,-0.00018138372831307502,0.0012607311968946702,27.5,36789,,,,3.2825372219085693,2.0691492557525635,8.956838607788086,-0.00292770192027092,-0.0018260413780808449,-0.0031949058175086975,35.918235778808594,,,,,,,,,,,,,,,,2779096485
3.228060707710912,2.014857853599459,9.050234090281563,0.00034258455728563425,0.00023829050918295746,-0.00010058353236039579,27.5,36790,,,,3.208237409591675,2.028331995010376,8.876045227050781,1.776963472366333e-06,-0.0004944605752825737,0.0010661538690328598,35.918235778808594,,,,,,,,,,,,,,,,2779096485
3.2274909352925545,2.0158053732680665,9.050123722760379,0.00016534453005617256,-0.0004074927612096506,-0.0011848429574157853,27.5,36791,,,,3.2585694789886475,2.040337085723877,8.95921516418457,1.776963472366333e-06,-0.003423938760533929,-0.0015970086678862572,35.918235778808594,,,,,,,,,,,,,,,,2779096485
3.227759261392736,2.013025207157646,9.052186108396596,0.0007676317222439777,0.0005835360526254933,0.00034859852981093003,27.5,36792,-19.649999618530273,-20.100000381469727,-55.95000076293945,3.18906307220459,2.100362539291382,8.909313201904297,-0.0037266500294208527,-0.002891306299716234,-0.003993854857981205,36.012351989746094,,,,,,,,,,,,,,,,2779096485
3.229395983316719,2.012595746652913,9.053467290748978,-6.322792683179741e-05,0.000856696483757695,-0.0002874642026696912,27.30000114440918,36793,,,,3.179476022720337,2.025930643081665,8.944957733154297,-0.0013298019766807556,-0.0012934091500937939,-0.0018633250147104263,35.918235778808594,,,,,,,,,,,,,,,,2779096485
3.229583751776069,2.016075356186345,9.051557678570486,0.0003762735448436176,-0.00047746066046792154,0.0009834894714199694,27.30000114440918,36794,,,,3.2633628845214844,2.037935733795166,8.883173942565918,-0.0037266500294208527,0.0008371206931769848,0.0007998375222086906,36.012351989746094,,,,,,,,,,,,,,,,2779096485
3.2279472167607652,2.013029506248701,9.052849994816341,0.0015123381106477557,-0.0008525269500116832,-0.0011019454111540357,27.30000114440918,36795,,,,3.2489824295043945,2.0427379608154297,8.899807929992676,-0.00026454031467437744,-0.002092357724905014,-0.0029285894706845284,35.918235778808594,,,,,,,,,,,,,,,,2779096485
3.226619155829984,2.0152991646421445,9.050016344203883,0.001683972183821126,5.127002291739364e-05,-0.0002907066012745804,27.30000114440918,36796,-19.649999618530273,-20.549999237060547,-56.849998474121094,3.208237409591675,2.0235297679901123,8.809508323669434,-0.005058232694864273,-0.0018260413780808449,-0.003727538511157036,35.918235778808594,,,,,,,,,,,,,,,,2779096485
