accelX,accelY,accelZ,gyroX,gyroY,gyroZ,temp,dataCNT,pad,magX,magY,magZ,pad
0.0,0.0,0.0,0.0,0.0,0.0,0.0,0,0,-26.700000762939453,27.899999618530273,-78.9000015258789,2779096485
0.4593127555847168,1.9812743934631347,10.004261385345458,0.16085201257397796,-0.6168565008578587,-1.8114583723366755,25.5,1484,0,-26.700000762939453,27.899999618530273,-78.9000015258789,2779096485
0.4293810798645019,2.0249326263427734,10.324564417266846,0.10390708414104446,-0.5611630983389962,-1.7918967818163003,25.5,1486,0,-26.850000381469727,27.75,-78.1500015258789,2779096485
0.40940563201904295,2.0534855415344238,10.446528404998778,0.08810705550279312,-0.5362278479870155,-1.7856820491129088,25.5,1487,0,-26.850000381469727,27.75,-78.1500015258789,2779096485
0.42302542037963864,2.0519143280029297,10.6152856880188,0.08140605621930573,-0.5124230162993668,-1.7806714979776348,25.5,1488,0,-26.850000381469727,27.75,-78.1500015258789,2779096485
0.4505192085266113,2.05103853225708,10.749039478302002,0.08578785499924119,-0.48886817554152573,-1.7747025217779469,25.5,1489,0,-26.850000381469727,27.75,-78.1500015258789,2779096485
0.46085428619384766,2.036356775665283,10.842937328338623,0.09497438251101838,-0.4670219656641156,-1.7698308611504685,25.5,1490,0,-25.950000762939453,29.100000381469727,-77.55000305175781,2779096485
0.4541905822753906,2.052118295288086,10.918610611724853,0.11025182571005752,-0.4393170144816811,-1.7622844147531347,25.5,1491,0,-25.950000762939453,29.100000381469727,-77.55000305175781,2779096485
0.40531862258911133,2.137247533416748,10.906146438598633,0.13041495773752046,-0.4104024089351265,-1.7608261143555484,25.5,1492,0,-25.950000762939453,29.100000381469727,-77.55000305175781,2779096485
0.4230877769470215,2.1435557525634765,10.90602071609497,0.15015213046735795,-0.3852500510346718,-1.7587192610000544,25.5,1493,0,-25.950000762939453,29.100000381469727,-77.55000305175781,2779096485
0.4046126251220703,2.1211726234436035,10.839344498443603,0.17242142342843597,-0.3604638711236838,-1.75779708821573,25.5,1494,0,-26.399999618530273,29.100000381469727,-78.0,2779096485
0.3985057563781738,2.122315976715088,10.823852368164061,0.20020541723148086,-0.33653497607750626,-1.7560755543199065,25.600000381469727,1495,0,-26.399999618530273,29.100000381469727,-78.0,2779096485
0.384678897857666,2.1277498207092282,10.671032496643067,0.23222998904072753,-0.32018359320256484,-1.7558803379554426,25.600000381469727,1496,0,-26.399999618530273,29.100000381469727,-78.0,2779096485
0.4022080841064453,2.145332989501953,10.492418427276611,0.2649570894249037,-0.30760376572166914,-1.7550408696382023,25.600000381469727,1497,0,-26.399999618530273,29.100000381469727,-78.0,2779096485
0.4562530967712402,2.188246009063721,10.344509621429443,0.2979405523517519,-0.3070290955097957,-1.754614217918698,25.600000381469727,1498,0,-25.350000381469727,29.700000762939453,-77.69999694824219,2779096485
0.5285002456665039,2.252144107055664,10.18238964920044,0.3309319248669832,-0.3091520410160657,-1.7549930792127693,25.600000381469727,1499,0,-25.350000381469727,29.700000762939453,-77.69999694824219,2779096485
0.5955608459472657,2.336194217681885,9.997614765930175,0.35808668694569656,-0.31452778477120985,-1.7575134682194886,25.600000381469727,1500,0,-25.350000381469727,29.700000762939453,-77.69999694824219,2779096485
0.6616638542175293,2.4118023406982423,9.846337471771239,0.378262935041438,-0.32055255419535156,-1.761727800773328,25.600000381469727,1501,0,-25.350000381469727,29.700000762939453,-77.69999694824219,2779096485
0.7007805252075195,2.4833331741333007,9.678677410125733,0.39222098832439456,-0.32545280385693526,-1.765834574909381,25.600000381469727,1502,0,-25.799999237060547,30.149999618530273,-78.0,2779096485
0.7406780364990234,2.5525078788757325,9.512185898590088,0.40130156197293104,-0.3285329626893315,-1.7694775329131733,25.5,1503,0,-25.799999237060547,30.149999618530273,-78.0,2779096485
0.7944902961730956,2.6463665130615235,9.387970494842529,0.39983230266753417,-0.3326289643388492,-1.7764304872077588,25.5,1504,0,-25.799999237060547,30.149999618530273,-78.0,2779096485
0.8101959266662597,2.7014687088012694,9.160716284179687,0.38955885922753253,-0.3344890025841133,-1.7863484053025809,25.600000381469727,1505,0,-26.100000381469727,30.0,-77.0999984741211,2779096485
0.8801492286682129,2.684896516418457,8.992584548187256,0.3684670696185355,-0.33682787053218033,-1.7985814625803205,25.600000381469727,1506,0,-26.100000381469727,30.0,-77.0999984741211,2779096485
1.0316444343566895,2.5133933013916017,8.679108027648926,0.34102480598631835,-0.34471088722576537,-1.809052619098291,25.600000381469727,1507,0,-26.100000381469727,30.0,-77.0999984741211,2779096485
1.0877090072631836,2.4079892066955564,8.288043600463867,0.30276926284904493,-0.3617992333482944,-1.8207218851771352,25.600000381469727,1508,0,-26.100000381469727,30.0,-77.0999984741211,2779096485
0.9581931831359863,2.5025120056152343,8.336871895599366,0.26052036294786285,-0.3862462663546942,-1.832351430208594,25.600000381469727,1509,0,-25.5,30.450000762939453,-77.55000305175781,2779096485
-0.043261326599121096,2.5770953201293945,8.765891696166992,0.2159989011513983,-0.4098579323119043,-1.8403539562552749,25.600000381469727,1510,0,-25.5,30.450000762939453,-77.55000305175781,2779096485
-0.0813752456665039,2.5756503898620604,9.252446757507323,0.17011583167796082,-0.3870161129836156,-1.8374676688910014,25.600000381469727,1511,0,-25.5,30.450000762939453,-77.55000305175781,2779096485
1.4254684013366699,2.851747587585449,8.777624114227295,0.12095150807959718,-0.3786556780625957,-1.8572477185140945,25.5,1512,0,-25.5,30.450000762939453,-77.55000305175781,2779096485
1.8743138519287108,2.868247740936279,8.821869089508056,0.05216192443753479,-0.36439731342138015,-1.8922831670204552,25.5,1513,0,-25.049999237060547,31.049999237060547,-76.94999694824219,2779096485
1.6668507110595703,2.7056735527038573,9.133637907409668,-0.01925892226456772,-0.34454238902475404,-1.9334866164113003,25.5,1514,0,-25.049999237060547,31.049999237060547,-76.94999694824219,2779096485
1.3947126693725584,2.6005033699035645,9.429272673797607,-0.0918417327738974,-0.30632482922226684,-1.972124336478179,25.600000381469727,1515,0,-25.049999237060547,31.049999237060547,-76.94999694824219,2779096485
1.1810217224121093,2.468378140258789,9.82393370666504,-0.1500687468942006,-0.26270545997564543,-2.0047642050214494,25.600000381469727,1516,0,-25.049999237060547,31.049999237060547,-76.94999694824219,2779096485
0.9621863960266113,2.374282827758789,10.229802285766601,-0.18419077110035767,-0.22700749023155609,-2.032932466335541,25.600000381469727,1517,0,-25.5,32.25,-75.75,2779096485
0.7702642837524414,2.2785697212219236,10.573289212799072,-0.18455876003935318,-0.19324897419589127,-2.05686484346482,25.600000381469727,1518,0,-25.5,32.25,-75.75,2779096485
0.620020620727539,2.204859772491455,10.58100998764038,-0.1610572157924611,-0.17090936046671296,-2.0793911714167406,25.5,1519,0,-25.5,32.25,-75.75,2779096485
0.5277804534912109,2.051073149871826,10.683422761535644,-0.12873874418523576,-0.15607170502916443,-2.0958552858998503,25.5,1520,0,-25.5,32.25,-75.75,2779096485
0.42201096725463866,1.9082081230163574,10.841585260009765,-0.08590876916980256,-0.15066041473161468,-2.1070705163054697,25.5,1521,0,-24.600000381469727,31.950000762939453,-77.25,2779096485
0.30361595840454103,1.7669799186706543,10.932844320678711,-0.03252291582480301,-0.1434597598257431,-2.110450640285186,25.5,1522,0,-24.600000381469727,31.950000762939453,-77.25,2779096485
0.22612177352905272,1.6438166137695311,11.116666060638428,0.027311409212955322,-0.13336447520354064,-2.111690115395407,25.5,1523,0,-24.600000381469727,31.950000762939453,-77.25,2779096485
0.11312378540039063,1.575718643951416,11.097016003417968,0.09124768806522675,-0.12009817135107559,-2.1117776002366146,25.600000381469727,1524,0,-24.600000381469727,31.950000762939453,-77.25,2779096485
0.1032949249267578,1.4172064178466797,11.22943051071167,0.16259970536942916,-0.10490943804733734,-2.1091809582705077,25.600000381469727,1525,0,-24.450000762939453,33.29999923706055,-76.94999694824219,2779096485
0.06517345428466796,1.323590406036377,11.18768854598999,0.23097691849323487,-0.09285334782281739,-2.1022168453310317,25.600000381469727,1526,0,-24.450000762939453,33.29999923706055,-76.94999694824219,2779096485
-0.011082459259033202,1.2411378273010254,10.986929222106934,0.30599469711790667,-0.08101918546831131,-2.0945527271617412,25.600000381469727,1527,0,-24.450000762939453,33.29999923706055,-76.94999694824219,2779096485
-0.19870540771484374,1.1728825828552245,10.963939163208007,0.37568327072716357,-0.07652952866496887,-2.0872954135040676,25.5,1528,0,-24.450000762939453,33.29999923706055,-76.94999694824219,2779096485
-0.6269114700317383,1.145077049255371,11.23031520385742,0.4541244164094542,-0.07585341198996871,-2.0694602104905693,25.5,1529,0,-23.850000381469727,33.0,-77.69999694824219,2779096485
0.060036215209960934,1.1874667671203614,10.76797665939331,0.5347379891307285,-0.07135323570039276,-2.0558113368922406,25.5,1530,0,-23.850000381469727,33.0,-77.69999694824219,2779096485
0.42518573150634764,1.312391495513916,10.249161420440673,0.6196327930119652,-0.09841257671790436,-2.051755469080075,25.5,1531,0,-23.850000381469727,33.0,-77.69999694824219,2779096485
0.39625314407348633,1.161688906097412,10.332652452850342,0.6853379168165004,-0.13399766172206376,-2.0428038456906337,25.5,1532,0,-23.850000381469727,33.0,-77.69999694824219,2779096485
0.20851598739624022,1.2812197914123535,10.074962629699707,0.7428980820623332,-0.15755607111574096,-2.03305116342451,25.5,1533,0,-24.149999618530273,33.75,-77.55000305175781,2779096485
0.15457893981933593,1.3197434768676757,9.935739443206787,0.7818685041840066,-0.17690078711423599,-2.0234297217360036,25.5,1534,0,-24.149999618530273,33.75,-77.55000305175781,2779096485
0.20163986740112305,1.4749100563049315,9.72024673538208,0.8077592700969303,-0.19975700748602035,-2.0138410435865826,25.5,1535,0,-24.149999618530273,33.75,-77.55000305175781,2779096485
0.17923127975463868,1.6055111389160155,9.240065427398681,0.8230712478371677,-0.21562354191413666,-2.0037873908298347,25.5,1536,0,-24.149999618530273,33.75,-77.55000305175781,2779096485
0.4995379005432129,1.6925153732299805,9.332348324584961,0.8143824318401923,-0.23795481994916032,-1.9960709149138733,25.600000381469727,1537,0,-22.350000381469727,33.599998474121094,-76.05000305175781,2779096485
0.4911878776550293,1.8101612060546874,9.0092053024292,0.7913860493012003,-0.25155796041398376,-1.9907816107092162,25.600000381469727,1538,0,-22.350000381469727,33.599998474121094,-76.05000305175781,2779096485
0.6506975845336914,1.899847296142578,8.838433020019531,0.7566087476554297,-0.26670739211820527,-1.9855366747680152,25.600000381469727,1539,0,-22.350000381469727,33.599998474121094,-76.05000305175781,2779096485
0.7540603614807129,1.9681302047729492,8.649968968200684,0.7107334479544191,-0.2809423608894052,-1.9842412066962598,25.600000381469727,1540,0,-22.350000381469727,33.599998474121094,-76.05000305175781,2779096485
0.9122339630126953,1.875222882080078,8.583668871307372,0.659380099165692,-0.3008864079712984,-1.9796466146887866,25.5,1541,0,-23.100000381469727,35.400001525878906,-76.05000305175781,2779096485
0.8995012603759766,1.9054448822021484,8.507610083770752,0.6114441586116857,-0.32284487008788393,-1.9718871553531268,25.5,1542,0,-23.100000381469727,35.400001525878906,-76.05000305175781,2779096485
0.9211103530883789,1.9637767219543456,8.580616988372803,0.5663158356438925,-0.35052128549943434,-1.9617630420123222,25.5,1543,0,-23.100000381469727,35.400001525878906,-76.05000305175781,2779096485
0.9876005851745605,2.0786520614624022,8.718801833343505,0.5294005150001857,-0.376724806390725,-1.951400529150275,25.5,1544,0,-23.100000381469727,35.400001525878906,-76.05000305175781,2779096485
1.136777719116211,2.233419828033447,8.90686576385498,0.49671075879213855,-0.3995827112118872,-1.948216580273009,25.5,1545,0,-22.200000762939453,34.79999923706055,-75.5999984741211,2779096485
1.3561459922790526,2.2943901580810544,9.071201263427733,0.4686429852031877,-0.4099594786435712,-1.9522479536612172,25.5,1546,0,-22.200000762939453,34.79999923706055,-75.5999984741211,2779096485
1.4824098167419433,2.35664638671875,9.246873358917236,0.4380748895261934,-0.41309755457137587,-1.9611868870881513,25.5,1547,0,-22.200000762939453,34.79999923706055,-75.5999984741211,2779096485
1.5443371406555175,2.437816468811035,9.424152967834472,0.4165969215880806,-0.41048116526592165,-1.9760626390448315,25.5,1548,0,-22.200000762939453,34.79999923706055,-75.5999984741211,2779096485
1.5444125816345213,2.508769046020508,9.6107659866333,0.4022902605208284,-0.40982577464196257,-1.9924955346222775,25.5,1549,0,-22.350000381469727,36.29999923706055,-75.0,2779096485
1.5038575225830078,2.582905658721924,9.781485819244384,0.39541638879426927,-0.4145508681998555,-2.0096597741774493,25.5,1550,0,-22.350000381469727,36.29999923706055,-75.0,2779096485
1.4474796714782714,2.6448792640686034,9.94385241394043,0.39849753965416473,-0.42160819843474673,-2.028027582773692,25.5,1551,0,-22.350000381469727,36.29999923706055,-75.0,2779096485
1.4274439231872558,2.678381937408447,10.141432113647461,0.4081166044714146,-0.4259843113657939,-2.0483291192820556,25.5,1552,0,-21.0,36.900001525878906,-74.8499984741211,2779096485
1.4287577102661133,2.7070574348449705,10.307402641296386,0.4208776600632448,-0.4302836120736284,-2.0705434179670013,25.5,1553,0,-21.0,36.900001525878906,-74.8499984741211,2779096485
1.4544021476745606,2.728071298980713,10.463370584869384,0.43641576015218414,-0.42919406627384554,-2.0922429742220916,25.5,1554,0,-21.0,36.900001525878906,-74.8499984741211,2779096485
1.4909526290893553,2.7273111320495604,10.6387898147583,0.45202902130447176,-0.42354600098330675,-2.1158603792914112,25.5,1555,0,-21.0,36.900001525878906,-74.8499984741211,2779096485
1.5152759895324706,2.727635550689697,10.781061743927001,0.4681255929280655,-0.408699377350849,-2.140961098498684,25.5,1556,0,-21.600000381469727,37.5,-75.9000015258789,2779096485
1.5385304656982421,2.721897587585449,10.8748897605896,0.4855339578007846,-0.38779954839190567,-2.1655435798771947,25.399999618530273,1557,0,-21.600000381469727,37.5,-75.9000015258789,2779096485
1.5845519302368163,2.7219012886047365,10.94453703689575,0.501542784924966,-0.363518836452341,-2.1942983891015397,25.399999618530273,1558,0,-21.600000381469727,37.5,-75.9000015258789,2779096485
1.6244010665893553,2.7212306564331055,10.948290879821776,0.5130917626761008,-0.3342147302832336,-2.223508099526458,25.5,1559,0,-21.600000381469727,37.5,-75.9000015258789,2779096485
1.6717770294189453,2.742456600189209,10.898788101959228,0.5236117815418356,-0.30511422943596633,-2.2490911438354404,25.600000381469727,1560,0,-21.149999618530273,38.54999923706055,-75.30000305175781,2779096485
1.717080458831787,2.746241135406494,10.832643522644043,0.5264118956717291,-0.2728860190153662,-2.2782810270261793,25.600000381469727,1561,0,-21.149999618530273,38.54999923706055,-75.30000305175781,2779096485
1.75326876373291,2.753114077758789,10.731925965118409,0.5210899610860402,-0.23995941457740053,-2.3077168597997995,25.600000381469727,1562,0,-21.149999618530273,38.54999923706055,-75.30000305175781,2779096485
1.7879579315185545,2.748237629699707,10.638424647521973,0.5093739298987755,-0.20399369061915468,-2.334424823345501,25.5,1563,0,-21.149999618530273,38.54999923706055,-75.30000305175781,2779096485
1.8065225059509278,2.7357333061218263,10.520874891662597,0.4867686924842981,-0.16782683142096283,-2.361548086886638,25.5,1564,0,-20.850000381469727,38.25,-74.8499984741211,2779096485
1.822359952545166,2.715057730102539,10.39924160308838,0.4612837057659784,-0.13166125719798813,-2.388480241989264,25.5,1565,0,-20.850000381469727,38.25,-74.8499984741211,2779096485
1.816827751159668,2.6837017601013184,10.290452309417724,0.4310400163970399,-0.0950388576405661,-2.4126808327279843,25.700000762939453,1566,0,-20.850000381469727,38.25,-74.8499984741211,2779096485
1.8248343269348144,2.6548712310791016,10.204830461883544,0.39597129835099015,-0.06297174849110046,-2.4362149807242974,25.700000762939453,1567,0,-20.850000381469727,38.25,-74.8499984741211,2779096485
1.8360208633422852,2.627486043548584,10.121141929626464,0.3634301531886508,-0.03170608437667282,-2.4583062280519217,25.700000762939453,1568,0,-19.5,39.150001525878906,-73.94999694824219,2779096485
1.6424896301269531,2.6235518600463865,10.145154217529296,0.327450720608788,-0.004521161998821564,-2.48544206837122,25.700000762939453,1569,0,-19.5,39.150001525878906,-73.94999694824219,2779096485
1.1654884696960448,2.5441370704650876,10.5995516456604,0.2966957775509978,0.03374359567576019,-2.502131100122647,25.600000381469727,1570,0,-19.5,39.150001525878906,-73.94999694824219,2779096485
1.9662809288024903,2.6107353050231934,10.08745005569458,0.27697004975586625,0.06949290450741073,-2.5259124893349614,25.600000381469727,1571,0,-19.5,39.150001525878906,-73.94999694824219,2779096485
2.224601308441162,2.5776945861816407,9.867634033966064,0.26212286020168074,0.08189390072233659,-2.546006685438081,25.700000762939453,1572,0,-18.899999618530273,39.75,-74.8499984741211,2779096485
1.900932218170166,2.33543087310791,10.109802305603028,0.2437839735346773,0.09336217803509385,-2.5688926067137188,25.700000762939453,1573,0,-18.899999618530273,39.75,-74.8499984741211,2779096485
1.6353806076049804,2.1683814048767087,10.14369373550415,0.22914728023160508,0.11832107725739197,-2.585771921323724,25.700000762939453,1574,0,-18.899999618530273,39.75,-74.8499984741211,2779096485
1.5138469100952148,2.044723397064209,10.193445790100098,0.21649174573934143,0.14300361359736907,-2.598401529942954,25.600000381469727,1575,0,-18.899999618530273,39.75,-74.8499984741211,2779096485
1.3940768043518066,1.9672205390930175,10.130562668609619,0.2169360875062648,0.1639307199835901,-2.6111540967088676,25.5,1576,0,-18.600000381469727,39.900001525878906,-74.8499984741211,2779096485
1.284721703338623,1.889036693572998,10.028033854675293,0.2234406520290979,0.1794663766222461,-2.620467477240396,25.5,1577,0,-18.600000381469727,39.900001525878906,-74.8499984741211,2779096485
1.0028354385375977,1.7873251693725585,10.032797664642334,0.23740034981401628,0.18096601593756928,-2.6251393674979777,25.5,1578,0,-18.600000381469727,39.900001525878906,-74.8499984741211,2779096485
0.9128881088256836,1.6895910820007323,10.046428855133057,0.2586916834242189,0.1815963129263295,-2.6273888064972546,25.5,1579,0,-18.600000381469727,39.900001525878906,-74.8499984741211,2779096485
1.1264389778137207,1.5961671493530274,9.649451245880126,0.2893721644984422,0.16291418474459,-2.623355029606179,25.5,1580,0,-16.950000762939453,39.900001525878906,-73.5,2779096485
1.0578670906066894,1.460129718017578,9.444221202850342,0.32447380587324187,0.12807797397591172,-2.6133939150387726,25.600000381469727,1581,0,-16.950000762939453,39.900001525878906,-73.5,2779096485
0.8611422142028808,1.307199600982666,9.443480812072753,0.3515980747576834,0.09038529658906112,-2.599772498631094,25.600000381469727,1582,0,-16.950000762939453,39.900001525878906,-73.5,2779096485
0.7040124122619629,1.262363247680664,9.291535054016112,0.3777057085345847,0.051272122376037906,-2.5821589238819893,25.600000381469727,1583,0,-16.950000762939453,39.900001525878906,-73.5,2779096485
0.6663242599487305,1.2661219505310057,9.290167695617676,0.4029465499616492,0.009925647919832916,-2.5633573329524726,25.600000381469727,1584,0,-16.350000381469727,40.5,-73.3499984741211,2779096485
0.6254253425598144,1.333530484008789,9.260140354156494,0.4235441966916806,-0.03336109916682617,-2.545438493365515,25.5,1585,0,-16.350000381469727,40.5,-73.3499984741211,2779096485
0.6086128456115723,1.481295361328125,9.204979054260253,0.44600680851495894,-0.07973242593326064,-2.5265190642164748,25.5,1586,0,-16.350000381469727,40.5,-73.3499984741211,2779096485
0.63580849609375,1.6537489906311034,9.243805475616455,0.4638521182247246,-0.122732876546801,-2.5147488377013993,25.5,1587,0,-16.350000381469727,40.5,-73.3499984741211,2779096485
0.6783985176086426,1.7945590919494627,9.24953955078125,0.4801356703871678,-0.1703362681777745,-2.5051302922005583,25.5,1588,0,-15.600000381469727,42.0,-73.3499984741211,2779096485
0.7307642395019531,1.8999991874694824,9.173771199798583,0.49255921691846893,-0.21334278414065583,-2.5009476312897654,25.5,1589,0,-15.600000381469727,42.0,-73.3499984741211,2779096485
0.6666003036499023,1.9641264122009277,9.241355400848388,0.4988800832484735,-0.25799318953831313,-2.4995450841692164,25.5,1590,0,-15.600000381469727,42.0,-73.3499984741211,2779096485
0.9205244705200195,1.93391891708374,9.11397607421875,0.5025028611492444,-0.2989260218168497,-2.506929923294812,25.600000381469727,1591,0,-15.600000381469727,42.0,-73.3499984741211,2779096485
1.1445761405944823,1.910350714111328,9.094365195465087,0.5032708568812209,-0.3509567056767673,-2.510009875732225,25.600000381469727,1592,0,-15.149999618530273,41.25,-74.25,2779096485
1.174274614715576,1.93674029006958,9.082891213226318,0.4973814159869415,-0.3974407640513701,-2.5119088560502614,25.600000381469727,1593,0,-15.149999618530273,41.25,-74.25,2779096485
1.1675178993225097,1.9854637229919434,9.241554096984864,0.48436303245655093,-0.43387672901796237,-2.5159007214439697,25.600000381469727,1594,0,-15.149999618530273,41.25,-74.25,2779096485
1.2149747238159179,2.060543123626709,9.390993405151367,0.46321681449314944,-0.459590434667029,-2.5173669846931612,25.5,1595,0,-14.699999809265137,41.400001525878906,-73.05000305175781,2779096485
1.2297415290832518,2.1748706001281737,9.471517603302,0.4405717761364543,-0.47486705228613585,-2.5180495928232736,25.5,1596,0,-14.699999809265137,41.400001525878906,-73.05000305175781,2779096485
1.2517018074035644,2.2463552268981934,9.586527450561523,0.4103145645671739,-0.4810061046097702,-2.5202771606122485,25.600000381469727,1597,0,-14.699999809265137,41.400001525878906,-73.05000305175781,2779096485
1.2956180274963378,2.298102953338623,9.719513260650634,0.37412458913087904,-0.4818627170264101,-2.526215137617061,25.600000381469727,1598,0,-14.699999809265137,41.400001525878906,-73.05000305175781,2779096485
1.3114934188842773,2.324038163757324,9.831886898040771,0.33981670957142535,-0.47645880368502913,-2.5301896791479974,25.600000381469727,1599,0,-12.899999618530273,41.849998474121094,-73.05000305175781,2779096485
1.3449683532714842,2.3291257942199706,9.970534482574463,0.3053214899463774,-0.46665101395842773,-2.5330924248476947,25.600000381469727,1600,0,-12.899999618530273,41.849998474121094,-73.05000305175781,2779096485
1.2540510200500488,2.3333334045410155,10.219163874053955,0.27326507338861494,-0.45471930667176513,-2.539723715890128,25.600000381469727,1601,0,-12.899999618530273,41.849998474121094,-73.05000305175781,2779096485
1.3642929824829102,2.3119577751159666,10.373888050842284,0.250017874339883,-0.44074721852996035,-2.550105383538184,25.600000381469727,1602,0,-12.899999618530273,41.849998474121094,-73.05000305175781,2779096485
1.5614765983581542,2.2754518180847167,10.439754567718506,0.23183022193224304,-0.4263134248110442,-2.5595101970472096,25.600000381469727,1603,0,-12.600000381469727,43.04999923706055,-72.75,2779096485
1.5881581809997558,2.215751722717285,10.491353393554688,0.2170418349745224,-0.4105271380839232,-2.5684788114042885,25.600000381469727,1604,0,-12.600000381469727,43.04999923706055,-72.75,2779096485
1.7369667831420899,2.115100372314453,10.554695890045165,0.20006055458498154,-0.3902848702252124,-2.5806247566833704,25.600000381469727,1605,0,-12.600000381469727,43.04999923706055,-72.75,2779096485
1.7809148170471192,2.1338565773010254,10.574215813446045,0.18195936170153687,-0.36874742058456145,-2.6018267745291284,25.600000381469727,1606,0,-12.600000381469727,43.04999923706055,-72.75,2779096485
1.5309688346862793,2.1773176467895508,10.714234120941162,0.17447215732224472,-0.3474512133895975,-2.6145526830527137,25.600000381469727,1607,0,-12.300000190734863,42.150001525878906,-73.3499984741211,2779096485
1.2487915351867676,2.2251717887878417,10.922079962158202,0.17500186005942123,-0.32571288816720506,-2.6268551689395943,25.5,1608,0,-12.300000190734863,42.150001525878906,-73.3499984741211,2779096485
1.4325395538330077,2.1543842620849607,10.760614808654784,0.17449650527234345,-0.2986894798504544,-2.645239668897855,25.5,1609,0,-12.300000190734863,42.150001525878906,-73.3499984741211,2779096485
1.5353769729614257,2.1469189323425293,10.597393353271483,0.16823890899150162,-0.2776155201048329,-2.664307722408408,25.5,1610,0,-12.300000190734863,42.150001525878906,-73.3499984741211,2779096485
1.2898047729492188,2.1127159439086913,10.717438381195068,0.17054383495170883,-0.26328770022286546,-2.6748700389298654,25.399999618530273,1611,0,-10.5,42.75,-72.44999694824219,2779096485
1.1505737731933594,2.070860481262207,10.582877207946778,0.18133189432141542,-0.2508621696365659,-2.6811992076645113,25.399999618530273,1612,0,-10.5,42.75,-72.44999694824219,2779096485
1.0067590423583983,2.1280521080017087,10.710104904937744,0.184716552332856,-0.23943971201004852,-2.6907589239372767,25.5,1613,0,-10.5,42.75,-72.44999694824219,2779096485
0.9373936790466308,2.105674324798584,10.662659669494628,0.1988512597476062,-0.23280413327828933,-2.69590218704666,25.5,1614,0,-10.5,42.75,-72.44999694824219,2779096485
0.9820068496704101,1.9934949348449706,10.573262184143067,0.22232870238679872,-0.23370410195717772,-2.699059364497252,25.5,1615,0,-10.800000190734863,42.900001525878906,-72.30000305175781,2779096485
0.9484195388793945,1.9659224159240722,10.546705875396729,0.23813829177329773,-0.2385610286460263,-2.702538205199996,25.5,1616,0,-10.800000190734863,42.900001525878906,-72.30000305175781,2779096485
0.6650611656188965,1.9873334480285645,10.712965344238281,0.2670499678426733,-0.24513787136034745,-2.700895094739834,25.5,1617,0,-10.800000190734863,42.900001525878906,-72.30000305175781,2779096485
0.8708644927978515,1.9467342010498045,10.532755350494384,0.3016519602529915,-0.25620150797985886,-2.701248116713606,25.5,1618,0,-10.800000190734863,42.900001525878906,-72.30000305175781,2779096485
0.9137254364013672,1.9821094406127928,10.542280017089844,0.3356557933707831,-0.2772342952553107,-2.699843618827572,25.5,1619,0,-10.199999809265137,43.04999923706055,-72.9000015258789,2779096485
0.7460596549987792,2.016599089813232,10.570689414978027,0.3795430633054199,-0.29777000351671523,-2.6991096582940926,25.600000381469727,1620,0,-10.199999809265137,43.04999923706055,-72.9000015258789,2779096485
0.9930798507690429,2.089327707672119,10.48656348953247,0.4168591963483319,-0.3165289372637648,-2.7050593199181074,25.600000381469727,1621,0,-10.199999809265137,43.04999923706055,-72.9000015258789,2779096485
1.119149951171875,2.1625881507873532,10.490609638214112,0.458221703034189,-0.34651073137290467,-2.7127946643302625,25.600000381469727,1622,0,-10.199999809265137,43.04999923706055,-72.9000015258789,2779096485
1.0712721824645997,2.2498164276123047,10.382691990661622,0.50855542065917,-0.3767284083160745,-2.724091380806776,25.600000381469727,1623,0,-7.949999809265137,42.900001525878906,-72.1500015258789,2779096485
1.251048184967041,2.351809565734863,10.386955490112305,0.5563737360465387,-0.40643602333497225,-2.741629534834328,25.5,1624,0,-7.949999809265137,42.900001525878906,-72.1500015258789,2779096485
1.3087291687011717,2.412419065093994,10.253347609710692,0.6015267731490779,-0.4487749447382831,-2.7580275829491496,25.5,1625,0,-7.949999809265137,42.900001525878906,-72.1500015258789,2779096485
1.4170941162109374,2.616071053314209,10.196632517242431,0.6504275436698758,-0.4881433163610094,-2.7843191812349866,25.5,1626,0,-7.949999809265137,42.900001525878906,-72.1500015258789,2779096485
1.5427903388977051,2.703168112182617,10.015649571228026,0.6970775103213477,-0.5336304337041977,-2.8126641499440934,25.5,1627,0,-8.100000381469727,43.650001525878906,-72.1500015258789,2779096485
1.6258085006713867,2.860657361602783,10.006379340362548,0.7391141962325252,-0.5829947540411492,-2.8428810412547474,25.5,1628,0,-8.100000381469727,43.650001525878906,-72.1500015258789,2779096485
1.526567163848877,2.9818046951293944,9.869853897857666,0.7792070209037044,-0.6268335278126689,-2.8749215853725216,25.5,1629,0,-8.100000381469727,43.650001525878906,-72.1500015258789,2779096485
1.478529354095459,3.0045154579162596,9.918549591827393,0.8129959435809062,-0.6652787745709877,-2.9036992711504737,25.399999618530273,1630,0,-8.100000381469727,43.650001525878906,-72.1500015258789,2779096485
1.3782558815002441,3.0035897544860837,9.834679859161376,0.8420727223209267,-0.6999538640948234,-2.924143146960221,25.399999618530273,1631,0,-6.599999904632568,44.25,-70.5,2779096485
1.3601158027648925,2.9738641769409178,9.83944733276367,0.8634478589521555,-0.7261277772928986,-2.9364405195778436,25.5,1632,0,-6.599999904632568,44.25,-70.5,2779096485
1.4241683715820312,2.985258905029297,9.755699771118163,0.8779529255192551,-0.7485162067645226,-2.943747913979472,25.600000381469727,1633,0,-6.599999904632568,44.25,-70.5,2779096485
1.426141463470459,2.983256578826904,9.751671342468262,0.8835880944523038,-0.7659399780240419,-2.9471472659821263,25.600000381469727,1634,0,-6.599999904632568,44.25,-70.5,2779096485
1.411282618713379,2.9114089904785154,9.70159337387085,0.8780252370002565,-0.7739166647504241,-2.9457416429105394,25.600000381469727,1635,0,-6.0,44.400001525878906,-70.80000305175781,2779096485
1.2324193099975584,2.7300885040283203,9.816247661590577,0.8629774182067287,-0.7759976721277162,-2.936263758919607,25.5,1636,0,-6.0,44.400001525878906,-70.80000305175781,2779096485
1.084494017791748,2.5627668800354004,9.873254536437988,0.8384185124616061,-0.7666376263563074,-2.917738790530616,25.399999618530273,1637,0,-6.0,44.400001525878906,-70.80000305175781,2779096485
1.1659862007141113,2.4165483558654786,9.864704508972167,0.805649746922462,-0.753993510167139,-2.8927677073464144,25.399999618530273,1638,0,-6.0,44.400001525878906,-70.80000305175781,2779096485
1.2921424713134766,2.367300200653076,9.850264813995361,0.7645035688104654,-0.7346847867905291,-2.867972059897816,25.5,1639,0,-5.849999904632568,44.70000076293945,-71.55000305175781,2779096485
1.4048571632385254,2.343663397979736,9.811831410980224,0.7201100119823757,-0.7138685211681154,-2.8415404459186306,25.5,1640,0,-5.849999904632568,44.70000076293945,-71.55000305175781,2779096485
1.4530610328674316,2.350794664001465,9.896672978973388,0.6666336178188383,-0.6914040318162814,-2.819610599467761,25.5,1641,0,-5.849999904632568,44.70000076293945,-71.55000305175781,2779096485
1.4388057159423828,2.2960805519104004,9.938834280395508,0.6121041232147855,-0.6617448796709874,-2.79851773127853,25.600000381469727,1642,0,-4.800000190734863,44.70000076293945,-70.3499984741211,2779096485
1.485945262145996,2.2637539428710935,9.90422735748291,0.5541627797247491,-0.6303239599239778,-2.7797733783383487,25.600000381469727,1643,0,-4.800000190734863,44.70000076293945,-70.3499984741211,2779096485
1.4218582626342773,2.230155753326416,10.023277222442626,0.4916638821398454,-0.5946498254714808,-2.7645593450044283,25.600000381469727,1644,0,-4.800000190734863,44.70000076293945,-70.3499984741211,2779096485
1.4074722511291504,2.1729052841186522,10.04463060836792,0.42617881533467117,-0.5555844083943773,-2.74889382597401,25.600000381469727,1645,0,-4.800000190734863,44.70000076293945,-70.3499984741211,2779096485
1.3168841217041016,2.171772585296631,10.175595699310302,0.360686145204637,-0.5154576550511436,-2.7339563086541725,25.5,1646,0,-3.450000047683716,45.45000076293945,-70.5,2779096485
1.2179922508239747,2.0826790321350095,10.3291041847229,0.2998157839309305,-0.47109226780929064,-2.7189595892637093,25.5,1647,0,-3.450000047683716,45.45000076293945,-70.5,2779096485
1.2815077232360839,2.0070501609802247,10.362926641082764,0.24732070470121903,-0.4290962550255818,-2.707243531444834,25.600000381469727,1648,0,-3.450000047683716,45.45000076293945,-70.5,2779096485
1.144496587371826,1.9712425003051757,10.60631494064331,0.2031469585300911,-0.3861254986579918,-2.6948353180634035,25.600000381469727,1649,0,-3.450000047683716,45.45000076293945,-70.5,2779096485
1.0305707649230957,1.858201707458496,10.75671427078247,0.16959873900845918,-0.3424009012595218,-2.685726581486533,25.600000381469727,1650,0,-3.5999999046325684,45.0,-70.05000305175781,2779096485
0.9975683273315429,1.7563423667907714,10.803009274291991,0.14670607327740753,-0.3019040284484352,-2.677730160736609,25.600000381469727,1651,0,-3.5999999046325684,45.0,-70.05000305175781,2779096485
-0.0871138069152832,0.6299571846008301,11.182369470977783,0.3656627676678566,-0.1725474042629364,-2.568020128514994,25.600000381469727,1657,0,-3.0,45.75,-70.19999694824219,2779096485
-0.2018212173461914,0.5863208961486817,11.085738773345946,0.4097428238324794,-0.14993545568255814,-2.540091205486423,25.600000381469727,1658,0,-1.649999976158142,45.0,-69.5999984741211,2779096485
-0.206919913482666,0.518745181274414,10.99329075088501,0.45295532864636,-0.1295408816421524,-2.5090727160089696,25.600000381469727,1659,0,-1.649999976158142,45.0,-69.5999984741211,2779096485
-0.2434855354309082,0.5398801322937011,10.788073867034912,0.4958351180896408,-0.11505951055068893,-2.477217348138418,25.600000381469727,1660,0,-1.649999976158142,45.0,-69.5999984741211,2779096485
-0.325835831451416,0.5842824943542481,10.62580428390503,0.5401462633983645,-0.10345513904926117,-2.442006330738401,25.799999237060547,1661,0,-1.649999976158142,45.0,-69.5999984741211,2779096485
-0.3793958610534668,0.6079455406188965,10.507159474945068,0.5754950394627223,-0.09553748128803498,-2.410010960490306,25.899999618530273,1662,0,-0.8999999761581421,45.599998474121094,-69.75,2779096485
-0.3976812889099121,0.6216031616210937,10.369092127990722,0.6082784057824425,-0.0905619507208548,-2.3767287508123287,25.899999618530273,1663,0,-0.8999999761581421,45.599998474121094,-69.75,2779096485
-0.37751024780273434,0.6344965408325195,10.21375216140747,0.6404371076990693,-0.08527769320642883,-2.3461621198739238,25.899999618530273,1664,0,-0.8999999761581421,45.599998474121094,-69.75,2779096485
-0.3035038063049316,0.6445629768371581,10.082193935394287,0.6684551867024207,-0.08738820175049362,-2.3167329782924964,25.600000381469727,1665,0,-0.8999999761581421,45.599998474121094,-69.75,2779096485
-0.23106644744873045,0.6829239295959473,9.91317526321411,0.6967366723094789,-0.09617773849920365,-2.286827936485445,25.5,1666,0,-0.75,45.29999923706055,-70.94999694824219,2779096485
-0.14353734130859375,0.74775337600708,9.732837677764893,0.7225879169120974,-0.10699305532247987,-2.263970278006682,25.5,1667,0,-0.75,45.29999923706055,-70.94999694824219,2779096485
-0.04052638549804687,0.8176912384033203,9.598137548065186,0.7439845319373701,-0.12365168709027222,-2.247506210128891,25.5,1668,0,-0.75,45.29999923706055,-70.94999694824219,2779096485
0.04479302520751953,0.9002468101501464,9.445546279907227,0.7623619745187903,-0.14423086479827088,-2.2329190383059485,25.5,1669,0,-0.75,45.29999923706055,-70.94999694824219,2779096485
0.13071046829223631,0.9849723007202148,9.298701274108886,0.7744652692733075,-0.16685456457687836,-2.2260903005016535,25.5,1670,0,1.0499999523162842,45.45000076293945,-70.05000305175781,2779096485
0.20775182037353515,1.0650529747009276,9.187387773132324,0.7828113364403452,-0.18743641210385148,-2.221338355622254,25.5,1671,0,1.0499999523162842,45.45000076293945,-70.05000305175781,2779096485
0.27296987380981447,1.1532135345458985,9.069081364440917,0.7871476550870773,-0.2087023191837213,-2.2228181210980793,25.5,1672,0,1.0499999523162842,45.45000076293945,-70.05000305175781,2779096485
0.32339248580932617,1.2406893310546874,8.959752058410643,0.784496165318697,-0.2272993660271202,-2.226094002295543,25.5,1673,0,1.0499999523162842,45.45000076293945,-70.05000305175781,2779096485
0.35138879013061525,1.3196410820007323,8.859004331970215,0.7769959846870826,-0.2441453445184094,-2.2328898766922127,25.700000762939453,1674,0,1.649999976158142,45.0,-69.44999694824219,2779096485
0.3545688255310058,1.3787162284851073,8.760585855102539,0.7643914763609543,-0.2579783956785594,-2.245565171839629,25.700000762939453,1675,0,1.649999976158142,45.0,-69.44999694824219,2779096485
0.34298953247070313,1.4368932609558105,8.663299964904786,0.7447886135018692,-0.2674232231826883,-2.2571450289433908,25.700000762939453,1676,0,1.649999976158142,45.0,-69.44999694824219,2779096485
0.34135099029541016,1.4800111824035644,8.567743422698975,0.7159186758243911,-0.2753124050941545,-2.2714149317299497,25.700000762939453,1677,0,1.649999976158142,45.0,-69.44999694824219,2779096485
0.33496422729492187,1.5113647598266602,8.493222913360595,0.6823333651269319,-0.2800791238595993,-2.2882147642977677,25.600000381469727,1678,0,2.25,45.900001525878906,-69.0,2779096485
0.3431510688781738,1.5339984367370605,8.40690329284668,0.6401187001613275,-0.28526565002059373,-2.302719171732502,25.600000381469727,1679,0,2.25,45.900001525878906,-69.0,2779096485
0.3372988227844238,1.5425883155822753,8.356217534637452,0.5993917768389582,-0.2882153672236943,-2.3202246554316064,25.600000381469727,1680,0,2.25,45.900001525878906,-69.0,2779096485
0.35459839630126955,1.5436064697265623,8.305758734893798,0.5504519044557239,-0.2938330192147934,-2.340409066116033,25.5,1681,0,2.25,45.900001525878906,-69.0,2779096485
0.3696991157531738,1.5353995155334472,8.24707615814209,0.4996851302088611,-0.2980045947176254,-2.361225924291785,25.5,1682,0,3.299999952316284,44.849998474121094,-69.0,2779096485
0.4181231399536133,1.5117719093322752,8.20791679458618,0.449255705232863,-0.29942337380490675,-2.384317468233774,25.5,1683,0,3.299999952316284,44.849998474121094,-69.0,2779096485
0.4633894470214844,1.4799635925292969,8.152080002593994,0.39524781069842574,-0.305126220318692,-2.411909281675977,25.399999618530273,1684,0,3.299999952316284,44.849998474121094,-69.0,2779096485
0.6247018119812011,1.4037042022705077,8.055502726745605,0.3472784541308713,-0.3099083121814237,-2.4416982895551307,25.399999618530273,1685,0,3.299999952316284,44.849998474121094,-69.0,2779096485
0.638012247467041,1.3970720878601073,7.960851438903808,0.30090024975096896,-0.3217844592702263,-2.472645080078629,25.399999618530273,1686,0,4.050000190734863,44.849998474121094,-69.1500015258789,2779096485
0.4231018333435059,1.3581023361206055,8.135749722290038,0.25690132678839783,-0.3329121582293193,-2.50559468091245,25.5,1687,0,4.050000190734863,44.849998474121094,-69.1500015258789,2779096485
0.24609882888793944,1.255416845703125,8.223948750305176,0.21580912429342347,-0.33837592611578843,-2.538303019326875,25.5,1688,0,4.050000190734863,44.849998474121094,-69.1500015258789,2779096485
0.16946978530883788,1.1056502403259276,8.272145404815674,0.1825803576002539,-0.34235466212541305,-2.569232745645806,25.5,1689,0,4.800000190734863,45.150001525878906,-69.44999694824219,2779096485
0.19630079193115232,0.959005687713623,8.119948762512207,0.16149627118465698,-0.3511728944346715,-2.591494694940229,25.5,1690,0,4.800000190734863,45.150001525878906,-69.44999694824219,2779096485
-0.0610394905090332,0.8923441619873047,8.228294494628907,0.14497537144959427,-0.36989180087081225,-2.607670801869231,25.5,1691,0,4.800000190734863,45.150001525878906,-69.44999694824219,2779096485
-0.31194960708618164,0.7688558776855469,8.323891822814941,0.1296488994552237,-0.3825221951225583,-2.6231478223589892,25.5,1692,0,4.800000190734863,45.150001525878906,-69.44999694824219,2779096485
-0.3405791969299316,0.5898075180053711,8.257934088897704,0.11988497864937714,-0.3951333347197554,-2.6326678109264665,25.5,1693,0,5.400000095367432,45.45000076293945,-69.30000305175781,2779096485
-0.47358882064819335,0.47748715286254884,8.292090683746338,0.11731270460707688,-0.41420990368783583,-2.637481700932395,25.399999618530273,1694,0,5.400000095367432,45.45000076293945,-69.30000305175781,2779096485
-0.6784952674865723,0.3595050880432129,8.372686248016358,0.12103342691416503,-0.4336035486131221,-2.640233618504792,25.399999618530273,1695,0,5.400000095367432,45.45000076293945,-69.30000305175781,2779096485
-0.6664477767944336,0.19010756607055662,8.351718478393554,0.12809451886407014,-0.4567961328861746,-2.6397238828177514,25.5,1696,0,5.400000095367432,45.45000076293945,-69.30000305175781,2779096485
-0.7394718780517577,0.0989414047241211,8.353726300048828,0.1444304354310872,-0.49209758457828706,-2.628518839003231,25.5,1697,0,6.900000095367432,44.849998474121094,-69.44999694824219,2779096485
-0.890906484222412,0.036911162567138674,8.42355601043701,0.1658593279685498,-0.5352686639216961,-2.6172137402272444,25.5,1698,0,6.900000095367432,44.849998474121094,-69.44999694824219,2779096485
-0.8504583808898926,-0.0177278076171875,8.46997924118042,0.18789408964984178,-0.5824680473601784,-2.6018214881544006,25.5,1699,0,6.900000095367432,44.849998474121094,-69.44999694824219,2779096485
-0.9089276069641113,-0.025241063690185545,8.558924716186523,0.2128185874889952,-0.6362342933168652,-2.577270418760732,25.5,1700,0,6.900000095367432,44.849998474121094,-69.44999694824219,2779096485
-0.9726376632690429,0.004965010833740235,8.708816146850586,0.23511226168968535,-0.6855116148395044,-2.551911006744849,25.5,1701,0,7.349999904632568,44.25,-69.75,2779096485
-0.8204312637329101,0.004815250396728516,8.89297737121582,0.25451570704771576,-0.728972173133513,-2.528916275365722,25.600000381469727,1702,0,7.349999904632568,44.25,-69.75,2779096485
-0.6135727348327636,0.0727571044921875,8.981523921203612,0.27242768233701065,-0.7639980475758206,-2.5086623828089327,25.600000381469727,1703,0,7.349999904632568,44.25,-69.75,2779096485
-0.5367811080932617,0.18271476135253906,9.170288129425048,0.28017474465788145,-0.7904859607800636,-2.4914820511029845,25.600000381469727,1704,0,7.349999904632568,44.25,-69.75,2779096485
-0.38876115951538087,0.2431468360900879,9.387512577819823,0.27416351740778977,-0.7950039336435017,-2.4840200735169446,25.600000381469727,1705,0,7.650000095367432,43.349998474121094,-69.5999984741211,2779096485
-0.17552491455078126,0.2798578071594238,9.447161756134033,0.26094206118777347,-0.7883886149095961,-2.4795605836706427,25.5,1706,0,7.650000095367432,43.349998474121094,-69.5999984741211,2779096485
-0.1323180191040039,0.3699438316345215,9.539292948913573,0.23837922129755876,-0.7712594292120314,-2.4771879734717963,25.5,1707,0,7.650000095367432,43.349998474121094,-69.5999984741211,2779096485
-0.188154736328125,0.43183152847290035,9.73172737197876,0.20505291633013534,-0.7427031919351006,-2.4799795188809415,25.5,1708,0,7.650000095367432,43.349998474121094,-69.5999984741211,2779096485
-0.14141325531005858,0.43239748535156247,9.829334353637694,0.16779754996497864,-0.7058027849933957,-2.486408576129487,25.600000381469727,1709,0,7.650000095367432,42.900001525878906,-69.5999984741211,2779096485
-0.08268264007568359,0.3933162544250488,9.854471265411377,0.12913236604954711,-0.6696300601829432,-2.4905665362213396,25.600000381469727,1710,0,7.650000095367432,42.900001525878906,-69.5999984741211,2779096485
-0.21233682250976563,0.46467089691162106,9.986743040466308,0.09929050108102112,-0.6389163761480575,-2.4931966674379242,25.600000381469727,1711,0,7.650000095367432,42.900001525878906,-69.5999984741211,2779096485
-0.4602488891601562,0.48334126815795897,10.27401361541748,0.07371131835559265,-0.6083476146807953,-2.499644406761388,25.600000381469727,1712,0,7.650000095367432,42.900001525878906,-69.5999984741211,2779096485
-0.5192413795471191,0.3682640548706055,10.366352588653564,0.05780288574591461,-0.5706677071512839,-2.50533571512983,25.5,1713,0,9.300000190734863,42.599998474121094,-69.44999694824219,2779096485
-0.606999089050293,0.2677429504394531,10.357943835449218,0.05493641230001511,-0.5442194217837889,-2.5064147014959635,25.5,1714,0,9.300000190734863,42.599998474121094,-69.44999694824219,2779096485
-0.8848750938415527,0.30753477706909177,10.54961887664795,0.06394493412575471,-0.5206990290144113,-2.5050797786929295,25.5,1715,0,9.300000190734863,42.599998474121094,-69.44999694824219,2779096485
-1.006760238647461,0.23750663223266602,10.661374406433104,0.07599823468905197,-0.4935179881938222,-2.5061226392791243,25.5,1716,0,9.300000190734863,42.599998474121094,-69.44999694824219,2779096485
-1.0316771827697753,0.1422041145324707,10.62674965133667,0.09688317657760406,-0.47320820920194184,-2.5040027630659893,25.5,1717,0,9.449999809265137,42.45000076293945,-69.30000305175781,2779096485
-1.266055332183838,0.156312100982666,10.70714879989624,0.13288548571107345,-0.4583595881986803,-2.5035461308107196,25.600000381469727,1718,0,9.449999809265137,42.45000076293945,-69.30000305175781,2779096485
-1.4236695190429687,0.11510386810302733,10.795245096588134,0.16706247090384935,-0.4410477962043265,-2.50119008547374,25.600000381469727,1719,0,9.449999809265137,42.45000076293945,-69.30000305175781,2779096485
-1.3428937637329101,-0.007725074005126953,10.710029688262939,0.2078568987014856,-0.42607303457690016,-2.495860813879298,25.600000381469727,1720,0,9.449999809265137,42.45000076293945,-69.30000305175781,2779096485
-1.3880555824279786,-0.10855882110595703,10.489417610931396,0.29005918681803133,-0.4290668870168628,-2.477572946720527,25.600000381469727,1721,0,10.649999618530273,42.599998474121094,-69.5999984741211,2779096485
-1.6161715324401855,-0.15341027755737305,10.533046347808838,0.34608882008010833,-0.43288401575474933,-2.4687896817161414,25.600000381469727,1722,0,10.649999618530273,42.599998474121094,-69.5999984741211,2779096485
-1.646421533203125,-0.2568023635864258,10.346967210388183,0.403246614977509,-0.43488192584869934,-2.457119070740956,25.600000381469727,1723,0,10.649999618530273,42.599998474121094,-69.5999984741211,2779096485
-1.799342416381836,-0.2598056846618652,10.37577486038208,0.46870588240980043,-0.44467507484730867,-2.4432768250172052,25.600000381469727,1724,0,11.399999618530273,42.29999923706055,-69.44999694824219,2779096485
-1.8378422508239745,-0.31212187271118164,10.218316751861572,0.5288372764072128,-0.4543084341816113,-2.4300505418177463,25.5,1725,0,11.399999618530273,42.29999923706055,-69.44999694824219,2779096485
-1.849698858642578,-0.3073026222229004,10.019088977050782,0.5900338682543094,-0.46601830680889755,-2.41111576620303,25.5,1726,0,11.399999618530273,42.29999923706055,-69.44999694824219,2779096485
-1.928864820098877,-0.2937164794921875,9.962173880004883,0.6468668906590068,-0.4773850111583772,-2.393525294376223,25.5,1727,0,11.399999618530273,42.29999923706055,-69.44999694824219,2779096485
-1.8794227912902832,-0.21839004516601562,9.667362534332275,0.6940159137216217,-0.48939576772355287,-2.37671387039984,25.5,1728,0,11.399999618530273,42.29999923706055,-70.5,2779096485
-1.7921705139160156,-0.16610402603149413,9.508604582977295,0.7317668078095013,-0.5021095056010402,-2.362492969777002,25.5,1729,0,11.399999618530273,42.29999923706055,-70.5,2779096485
-1.7449414329528807,-0.09519118804931641,9.246664793395995,0.7607751299941717,-0.5171302799938842,-2.349501623989392,25.5,1730,0,11.399999618530273,42.29999923706055,-70.5,2779096485
-1.8001805290222168,0.04251936569213867,9.017093370819092,0.7776585125827141,-0.53369136682952,-2.336915491474659,25.5,1731,0,11.399999618530273,42.29999923706055,-70.5,2779096485
-1.8107442848205566,0.15440772094726563,8.87199457321167,0.7803116335372509,-0.5475115482637906,-2.327368272085223,25.5,1732,0,11.850000381469727,42.150001525878906,-69.44999694824219,2779096485
-1.8752498359680174,0.2567987373352051,8.756658625030518,0.7721450301369376,-0.56101983358914,-2.3221310127058112,25.5,1733,0,11.850000381469727,42.150001525878906,-69.44999694824219,2779096485
-1.9851773612976074,0.35025149307250975,8.620252848815918,0.7568400165629028,-0.5743859460606726,-2.3141525949247326,25.600000381469727,1734,0,11.850000381469727,42.150001525878906,-69.44999694824219,2779096485
-2.019524203491211,0.46077428436279294,8.486763401031494,0.7359305336450743,-0.5854658346206245,-2.3077023255982505,25.600000381469727,1735,0,11.850000381469727,42.150001525878906,-69.44999694824219,2779096485
-2.1122674850463867,0.5232006103515625,8.434070942687988,0.7071753182886656,-0.6016347776463439,-2.2964077596243024,25.600000381469727,1736,0,13.050000190734863,41.099998474121094,-68.69999694824219,2779096485
-2.1509698287963865,0.5800483413696289,8.341956423187256,0.675010963812664,-0.6159949682511388,-2.2829344615775335,25.600000381469727,1737,0,13.050000190734863,41.099998474121094,-68.69999694824219,2779096485
-2.1214976028442383,0.660696280670166,8.260034548187255,0.6403304614139499,-0.6358091329675614,-2.267078919346741,25.600000381469727,1738,0,13.050000190734863,41.099998474121094,-68.69999694824219,2779096485
-2.1150671005249024,0.7232761054992676,8.246847928619385,0.6015635713771872,-0.6606659532259782,-2.253093056004292,25.600000381469727,1739,0,13.050000190734863,41.099998474121094,-68.69999694824219,2779096485
-2.115054389953613,0.7989616508483887,8.222468267822265,0.5612126065033206,-0.6846170057722729,-2.2356640849227802,25.600000381469727,1740,0,12.600000381469727,41.54999923706055,-69.5999984741211,2779096485
-2.132037769317627,0.879440315246582,8.282603475952149,0.5216603369506855,-0.710066053131929,-2.217326935968376,25.5,1741,0,12.600000381469727,41.54999923706055,-69.5999984741211,2779096485
-2.1209125427246094,0.9827356140136718,8.358610673522948,0.4776630385163681,-0.7337253031195891,-2.201153671963818,25.5,1742,0,12.600000381469727,41.54999923706055,-69.5999984741211,2779096485
-2.1244720260620116,1.05665435256958,8.46532201309204,0.43190028400225083,-0.7532119056820857,-2.1877056606314254,25.5,1743,0,12.600000381469727,41.54999923706055,-69.5999984741211,2779096485
-2.128639037322998,1.1437467384338378,8.585634187316895,0.3846364187763182,-0.7667597788967672,-2.17182839366419,25.5,1744,0,13.050000190734863,40.5,-69.75,2779096485
-2.0294142616271973,1.2037491210937499,8.662792476654053,0.33543608924026413,-0.7738820103669776,-2.1595890246947103,25.5,1745,0,13.050000190734863,40.5,-69.75,2779096485
-1.9515033195495606,1.2405112335205077,8.725037153625488,0.2901613123872313,-0.7805527295090788,-2.147455429825099,25.5,1746,0,13.050000190734863,40.5,-69.75,2779096485
-1.894468556213379,1.2608030250549316,8.777601945495606,0.2486442158590602,-0.7809521437487214,-2.131462674877986,25.600000381469727,1747,0,13.050000190734863,40.5,-69.75,2779096485
-1.8988506004333496,1.3118564552307128,8.888722993469237,0.20368623533132066,-0.7763943233377467,-2.11737747562756,25.600000381469727,1748,0,14.100000381469727,41.099998474121094,-69.75,2779096485
-1.9283427520751952,1.347291696166992,9.019067322540282,0.16316717838850617,-0.7670343108558513,-2.1087576554760514,25.600000381469727,1749,0,14.100000381469727,41.099998474121094,-69.75,2779096485
-1.9621528343200683,1.3516802825927734,9.105709492492675,0.1223527036459021,-0.7530339133118535,-2.098523633477815,25.600000381469727,1750,0,14.100000381469727,41.099998474121094,-69.75,2779096485
-1.993872663116455,1.3540096443176268,9.298882138061524,0.08783161141104187,-0.7371381040856557,-2.0909437976985434,25.5,1751,0,14.100000381469727,41.099998474121094,-69.75,2779096485
-1.9828062789916991,1.3808311553955077,9.406786514282226,0.05558417962540619,-0.7214824853565215,-2.0812882276009024,25.5,1752,0,14.699999809265137,39.75,-69.75,2779096485
-2.0253740196228027,1.3519173721313476,9.429217195892333,0.03596825396126404,-0.7054843974293621,-2.070682168658841,25.5,1753,0,14.699999809265137,39.75,-69.75,2779096485
-2.0497869522094727,1.3622219444274901,9.48244641418457,0.021077734776440735,-0.6981768166064586,-2.0572551496935967,25.5,1754,0,14.699999809265137,39.75,-69.75,2779096485
-2.1125166496276853,1.3929300491333008,9.595583059692382,0.012947590051200103,-0.6950085138004892,-2.0421159312120856,25.5,1755,0,14.699999809265137,39.75,-69.75,2779096485
-2.1762253601074217,1.4425440071105957,9.681470707702637,0.013283088425119934,-0.6926172548162376,-2.024377414261298,25.5,1756,0,14.399999618530273,40.5,-69.75,2779096485
-2.2227673599243163,1.4719631851196289,9.758546004486083,0.017472094317166748,-0.6948193428116581,-2.009352705047971,25.5,1757,0,14.399999618530273,40.5,-69.75,2779096485
-2.2602054130554197,1.511939128112793,9.83967339401245,0.0308217351374704,-0.6968043565481181,-1.9909196423475666,25.5,1758,0,14.399999618530273,40.5,-69.75,2779096485
-2.256998498535156,1.5777154373168945,9.886238048553466,0.04793636665977783,-0.7030187363826677,-1.974567493813817,25.5,1759,0,14.399999618530273,40.5,-69.75,2779096485
-2.1459762939453126,1.6232837699890137,9.958851747894286,0.06958425759007537,-0.7068570505668802,-1.9642158399910399,25.5,1760,0,14.399999618530273,39.75,-69.44999694824219,2779096485
-2.0953752479553223,1.6683409507751463,10.043471179962157,0.092129340853844,-0.719734526244963,-1.9515717770650929,25.5,1761,0,14.399999618530273,39.75,-69.44999694824219,2779096485
-2.0731691322326657,1.7193671653747558,10.081994566345214,0.12469528670366424,-0.7276608326217698,-1.9379838632236974,25.5,1762,0,14.399999618530273,39.75,-69.44999694824219,2779096485
-1.9657411407470702,1.7770939819335938,10.149372332763672,0.15490083294815216,-0.7329653701077574,-1.932365472205401,25.5,1763,0,14.699999809265137,38.70000076293945,-70.5,2779096485
-1.8648697853088378,1.862715941619873,10.2423107963562,0.1842294934623413,-0.7363240489829428,-1.929920177683003,25.5,1764,0,14.699999809265137,38.70000076293945,-70.5,2779096485
-1.7225072372436523,1.9735475624084473,10.27096745223999,0.2122369997162378,-0.7347850215153681,-1.9315623027735689,25.5,1765,0,14.699999809265137,38.70000076293945,-70.5,2779096485
-1.5949237937927245,2.0747354484558103,10.324948612976074,0.24635780552620454,-0.7343558131612351,-1.9379304468705003,25.5,1766,0,14.699999809265137,38.70000076293945,-70.5,2779096485
-1.4845023132324218,2.125973181915283,10.381463887786865,0.2755883618444121,-0.732167819945787,-1.9479098240649562,25.5,1767,0,15.449999809265137,38.70000076293945,-70.3499984741211,2779096485
-1.3795673133850097,2.2286100730895995,10.307808669281005,0.30723944528705,-0.7282486521914352,-1.9613448191976104,25.5,1768,0,15.449999809265137,38.70000076293945,-70.3499984741211,2779096485
-1.216462533569336,2.3590898818969728,10.296276442718506,0.32772085835210374,-0.7248720702159448,-1.9835229454972987,25.5,1769,0,15.449999809265137,38.70000076293945,-70.3499984741211,2779096485
-1.108852145385742,2.43106887512207,10.285506252288817,0.34813033277870603,-0.7193471095459489,-2.010597686243708,25.399999618530273,1770,0,15.449999809265137,38.70000076293945,-70.3499984741211,2779096485
-1.0797212730407715,2.491393246459961,10.204294075775147,0.36505836992051943,-0.7152551758749685,-2.038107927062282,25.399999618530273,1771,0,15.149999618530273,37.95000076293945,-70.6500015258789,2779096485
-1.0296570991516112,2.5119078842163085,10.19647307434082,0.3785855836631865,-0.7065819460281656,-2.0677047612384967,25.5,1772,0,15.149999618530273,37.95000076293945,-70.6500015258789,2779096485
-0.9498179260253906,2.529480024719238,10.166958380126953,0.3844361091163045,-0.699426445018266,-2.1051476873800357,25.5,1773,0,15.149999618530273,37.95000076293945,-70.6500015258789,2779096485
-0.9367089904785156,2.54252099609375,10.010860751342774,0.3943819238233534,-0.6943028826429111,-2.137164868917308,25.5,1774,0,15.149999618530273,37.95000076293945,-70.6500015258789,2779096485
-0.9412855812072753,2.452584358215332,10.061375215911864,0.3988300286560735,-0.6890120804101513,-2.169978488746804,25.5,1775,0,16.049999237060547,37.79999923706055,-70.05000305175781,2779096485
-0.9965286773681641,2.4231818534851075,10.062644590759277,0.3975954737359323,-0.6800440586064107,-2.202151411943554,25.5,1776,0,16.049999237060547,37.79999923706055,-70.05000305175781,2779096485
-0.986201375579834,2.3413335502624513,9.96787225341797,0.3996772201404219,-0.6715023356533322,-2.232070581820091,25.5,1777,0,16.049999237060547,37.79999923706055,-70.05000305175781,2779096485
-0.982845523071289,2.2197726371765136,10.000871887207031,0.40337343470774706,-0.6651976879742547,-2.259542379908594,25.5,1778,0,16.049999237060547,37.79999923706055,-70.05000305175781,2779096485
-0.980392756652832,2.131867485046387,10.047307566833496,0.405729127175885,-0.657705470194245,-2.2884627378830635,25.5,1779,0,16.049999237060547,37.95000076293945,-71.55000305175781,2779096485
-1.0160423202514648,2.026639917755127,9.843937902832032,0.4150613429140938,-0.6526959443759835,-2.31259945936138,25.5,1780,0,16.049999237060547,37.95000076293945,-71.55000305175781,2779096485
-1.0390711463928222,1.9000370201110839,9.914333570098878,0.42012232100426194,-0.6500667585815795,-2.331279889777936,25.5,1781,0,16.049999237060547,37.95000076293945,-71.55000305175781,2779096485
-1.0610409576416016,1.8032264678955077,9.929194508361816,0.4277194473567917,-0.6490700572346614,-2.35240829785167,25.5,1782,0,16.049999237060547,37.95000076293945,-71.55000305175781,2779096485
-1.0645734870910644,1.7173129501342772,9.713975077819823,0.4361010477504295,-0.648308313273301,-2.3695543413588194,25.5,1783,0,17.399999618530273,37.79999923706055,-70.5,2779096485
-1.0584623565673827,1.6346599929809569,9.746559674072266,0.4403036690534558,-0.6511277153472568,-2.385405562610773,25.5,1784,0,17.399999618530273,37.79999923706055,-70.5,2779096485
-1.0867391159057618,1.5473160499572753,9.728596459197998,0.446983363048369,-0.6588561754880412,-2.403058931644193,25.600000381469727,1785,0,17.399999618530273,37.79999923706055,-70.5,2779096485
-1.0972498237609862,1.4830331207275391,9.608131571197509,0.452946293872424,-0.6653412989350503,-2.418812794385265,25.600000381469727,1786,0,17.399999618530273,37.79999923706055,-70.5,2779096485
-1.101388161468506,1.4136573272705077,9.659749911499024,0.4588292366536882,-0.6761394117378029,-2.4343701890761693,25.600000381469727,1787,0,16.350000381469727,36.75,-71.25,2779096485
-1.0823178558349609,1.3807332092285156,9.576460939788818,0.46442304003738955,-0.688033015847431,-2.4455765844449333,25.600000381469727,1788,0,16.350000381469727,36.75,-71.25,2779096485
-1.0856555770874023,1.369697442626953,9.533679736328125,0.4663551567370613,-0.6971638899507108,-2.4606735518760408,25.5,1789,0,16.350000381469727,36.75,-71.25,2779096485
-1.1074330474853515,1.310367935180664,9.579104439544677,0.46900964921955,-0.7084768117623459,-2.4730485889284197,25.5,1790,0,16.350000381469727,36.75,-71.25,2779096485
-1.0300270515441894,1.2958356399536133,9.581072260284424,0.46864749926120436,-0.7241687493505965,-2.488657382628009,25.600000381469727,1791,0,17.549999237060547,36.599998474121094,-70.80000305175781,2779096485
-0.9558118202209472,1.248592128753662,9.575606191253662,0.46720296740635897,-0.7364623735690109,-2.49983757914973,25.600000381469727,1792,0,17.549999237060547,36.599998474121094,-70.80000305175781,2779096485
-0.9436425323486328,1.221773907470703,9.630471633911133,0.46907632811488464,-0.7496375773391132,-2.5095773850320713,25.600000381469727,1793,0,17.549999237060547,36.599998474121094,-70.80000305175781,2779096485
-0.8556139007568359,1.2140540672302245,9.595679809570312,0.4691767758926094,-0.7596323942098828,-2.520499534561742,25.600000381469727,1794,0,17.700000762939453,35.849998474121094,-70.80000305175781,2779096485
-0.767071612548828,1.181431339263916,9.610709910583497,0.46885946025090713,-0.7716309934447658,-2.5276099016493774,25.5,1795,0,17.700000762939453,35.849998474121094,-70.80000305175781,2779096485
-0.6949276062011719,1.1635349670410156,9.645569437408447,0.47055076726856615,-0.7826234504267313,-2.533734679429667,25.5,1796,0,17.700000762939453,35.849998474121094,-70.80000305175781,2779096485
-0.6745669906616211,1.1179091751098633,9.655284650421143,0.4721549955770807,-0.7930283208656251,-2.54466043754259,25.5,1797,0,17.700000762939453,35.849998474121094,-70.80000305175781,2779096485
-0.6444471611022949,1.08637880859375,9.723447032928467,0.4759355391397437,-0.8023092707532022,-2.550164625556226,25.5,1798,0,17.850000381469727,35.400001525878906,-71.55000305175781,2779096485
-0.580422144317627,1.0683398162841797,9.779006771850586,0.47674657821254274,-0.810357123801325,-2.5580171557134417,25.5,1799,0,17.850000381469727,35.400001525878906,-71.55000305175781,2779096485
-0.540488744354248,1.0502168220520018,9.82175870361328,0.48479740068526045,-0.8141509631956387,-2.5643703461609553,25.600000381469727,1800,0,17.850000381469727,35.400001525878906,-71.55000305175781,2779096485
-0.4466267829895019,1.0143365615844726,9.862838933563232,0.49006089885913195,-0.8177755254143277,-2.572706539658319,25.600000381469727,1801,0,17.850000381469727,35.400001525878906,-71.55000305175781,2779096485
-0.4089262939453125,0.9788914886474609,9.895655348205565,0.49855320685852356,-0.8218226713739836,-2.5783359428476476,25.600000381469727,1802,0,19.200000762939453,34.79999923706055,-70.80000305175781,2779096485
-0.29439260711669923,0.9775185226440429,9.87375140762329,0.5031931658148544,-0.8214695029263526,-2.5828807803483973,25.700000762939453,1803,0,19.200000762939453,34.79999923706055,-70.80000305175781,2779096485
-0.20020204010009765,0.9574180252075195,9.915192543029784,0.5091461097848903,-0.8205006981916614,-2.5901488798084116,25.700000762939453,1804,0,19.200000762939453,34.79999923706055,-70.80000305175781,2779096485
-0.15132877197265623,0.9573234436035156,9.928557858276367,0.5119402451181776,-0.8201117035697122,-2.597585191179622,25.700000762939453,1805,0,19.200000762939453,34.79999923706055,-70.80000305175781,2779096485
-0.08438652954101562,0.9520466499328613,9.934506816864014,0.5097486366615746,-0.8151744626008415,-2.607555593521266,25.700000762939453,1806,0,18.299999237060547,35.25,-70.6500015258789,2779096485
0.007698456573486328,0.9423602973937988,9.917081259155273,0.5047081782274645,-0.8057308468350003,-2.615358921777681,25.600000381469727,1807,0,18.299999237060547,35.25,-70.6500015258789,2779096485
0.08815289611816406,0.948917269897461,9.915967364501952,0.49971136900332075,-0.7975978591853156,-2.6278662513563003,25.5,1808,0,18.299999237060547,35.25,-70.6500015258789,2779096485
0.14334443969726562,0.9509784385681153,9.909629836273194,0.4898166070940178,-0.7834691438829768,-2.6425508149796375,25.5,1809,0,18.299999237060547,35.25,-70.6500015258789,2779096485
0.18935782928466796,0.9328203407287597,9.916415561676025,0.4764271719893991,-0.7674830135490297,-2.659946310126477,25.5,1810,0,19.049999237060547,33.45000076293945,-70.6500015258789,2779096485
0.2560307571411133,0.9136061813354492,9.950151885223388,0.45927827889990325,-0.7491556317378563,-2.6757975779837495,25.5,1811,0,19.049999237060547,33.45000076293945,-70.6500015258789,2779096485
0.27147354049682615,0.8906757499694824,9.933156169128418,0.4453477027813048,-0.7264711319919801,-2.6965651144164524,25.5,1812,0,19.049999237060547,33.45000076293945,-70.6500015258789,2779096485
0.3326919883728027,0.8368635650634766,9.959651055908203,0.4286360208449626,-0.7025150793607732,-2.7184140473760583,25.600000381469727,1813,0,19.049999237060547,33.45000076293945,-70.6500015258789,2779096485
0.3912045051574707,0.8124616981506347,9.954449815368651,0.4136637759047492,-0.6782070700202227,-2.740179723262658,25.600000381469727,1814,0,19.950000762939453,33.900001525878906,-71.0999984741211,2779096485
0.43103173446655274,0.7871951011657714,9.929147554016113,0.39877338987797945,-0.6550172421188796,-2.7647488821779067,25.600000381469727,1815,0,19.950000762939453,33.900001525878906,-71.0999984741211,2779096485
0.4581980010986328,0.7576443313598633,9.903999987792968,0.3851934921514099,-0.6323650531747067,-2.7894112583885704,25.600000381469727,1816,0,19.950000762939453,33.900001525878906,-71.0999984741211,2779096485
0.4819290489196777,0.7232447776794433,9.907089142608642,0.3731902523583594,-0.6122843659561233,-2.8107196761770488,25.600000381469727,1817,0,19.950000762939453,33.900001525878906,-71.0999984741211,2779096485
0.48464724197387693,0.7147238349914551,9.844798558044433,0.36480932441289216,-0.5904347738641521,-2.8355791729123427,25.600000381469727,1818,0,19.799999237060547,33.29999923706055,-71.4000015258789,2779096485
0.49891654052734374,0.6922822372436523,9.828612281036376,0.3557813215639125,-0.5749383655617913,-2.8573344824444704,25.600000381469727,1819,0,19.799999237060547,33.29999923706055,-71.4000015258789,2779096485
0.5009682136535645,0.6637693229675293,9.802268238830566,0.3449738011446739,-0.560870104015782,-2.880074109624532,25.399999618530273,1820,0,19.799999237060547,33.29999923706055,-71.4000015258789,2779096485
0.28244605331420897,0.3308151977539062,9.667030863189696,0.30052470409243226,-0.5254670593866839,-2.990517037115198,25.5,1826,0,20.399999618530273,33.150001525878906,-70.94999694824219,2779096485
0.203948331451416,0.28198417358398437,9.613949124908446,0.2988097881518719,-0.5269903675460326,-2.9954869683862246,25.5,1827,0,20.399999618530273,31.5,-71.25,2779096485
0.134271484375,0.23112816848754883,9.629694644165038,0.300088065518909,-0.5292535950617584,-3.000191282629855,25.5,1828,0,20.399999618530273,31.5,-71.25,2779096485
0.06428072357177735,0.15325031127929686,9.65237138748169,0.29974029663035096,-0.5330459497437747,-3.0009915092687027,25.5,1829,0,20.399999618530273,31.5,-71.25,2779096485
0.0264320068359375,0.0915974609375,9.634058071136474,0.30202142058847914,-0.5381981344427486,-2.9952765986352623,25.5,1830,0,20.399999618530273,32.400001525878906,-71.25,2779096485
-0.03094777374267578,0.03746683883666992,9.626061140441895,0.30953131510010284,-0.5409212832176677,-2.98931673044644,25.5,1831,0,20.399999618530273,32.400001525878906,-71.25,2779096485
-0.11274575805664062,-0.03793757858276367,9.673557479858399,0.3154881139957901,-0.5452870031626323,-2.9790898656935836,25.600000381469727,1832,0,20.399999618530273,32.400001525878906,-71.25,2779096485
-0.14967026672363282,-0.08781034622192382,9.657271798706054,0.32536247609128327,-0.5486396233463794,-2.9650769712662566,25.600000381469727,1833,0,21.149999618530273,30.299999237060547,-71.69999694824219,2779096485
-0.21406243209838866,-0.10992161865234375,9.648268340301513,0.33732706675927965,-0.5542371551555813,-2.949433463262096,25.600000381469727,1834,0,21.149999618530273,30.299999237060547,-71.69999694824219,2779096485
-0.26677515258789064,-0.15177984771728514,9.693998545837403,0.35197525826027926,-0.55597316333183,-2.931367903473792,25.600000381469727,1835,0,21.149999618530273,30.299999237060547,-71.69999694824219,2779096485
-0.3240090606689453,-0.17486463775634764,9.678348654937745,0.3671440977508113,-0.5586862453578978,-2.9111274731962204,25.5,1836,0,21.149999618530273,30.299999237060547,-71.69999694824219,2779096485
-0.3712933578491211,-0.18259748764038086,9.67081513671875,0.38564056365843186,-0.5610571045283396,-2.88582899430566,25.5,1837,0,21.600000381469727,30.0,-71.25,2779096485
-0.3926474914550781,-0.18120639038085937,9.684636125946044,0.40658155842964216,-0.5652483141861733,-2.862886946910435,25.5,1838,0,21.600000381469727,30.0,-71.25,2779096485
-0.4008460342407226,-0.17378808975219726,9.672656748962401,0.4236100766386937,-0.5674176120108976,-2.83984732129354,25.299999237060547,1839,0,21.600000381469727,30.0,-71.25,2779096485
-0.4183988845825195,-0.1547098960876465,9.655082888793945,0.4412034712847772,-0.5657849011947204,-2.8140162235044297,25.299999237060547,1840,0,21.600000381469727,30.0,-71.25,2779096485
-0.4196652313232422,-0.14373600006103515,9.662848300170898,0.45707190321515717,-0.5643965154331706,-2.7893557581118347,25.299999237060547,1841,0,21.450000762939453,29.399999618530273,-71.69999694824219,2779096485
-0.43731524276733397,-0.12137238540649414,9.686128122711182,0.4690676328939853,-0.5578980096017758,-2.76904673812086,25.600000381469727,1842,0,21.450000762939453,29.399999618530273,-71.69999694824219,2779096485
-0.4818126350402832,-0.10122571868896484,9.66757674484253,0.4779531965730409,-0.5451914822328904,-2.748114398623133,25.700000762939453,1843,0,21.450000762939453,29.399999618530273,-71.69999694824219,2779096485
-0.5093863876342773,-0.10683268814086913,9.668325846099853,0.48339991357074796,-0.5295238260157117,-2.7308024468391148,25.700000762939453,1844,0,21.450000762939453,29.399999618530273,-71.69999694824219,2779096485
-0.5642306709289551,-0.10300426406860351,9.664247621917724,0.48689025912932204,-0.512586467810147,-2.7146654084830355,25.600000381469727,1845,0,21.899999618530273,29.100000381469727,-72.30000305175781,2779096485
-0.6130978828430176,-0.0879440315246582,9.625482585144043,0.4869104325744408,-0.49606433636308866,-2.698514827952906,25.5,1846,0,21.899999618530273,29.100000381469727,-72.30000305175781,2779096485
-0.6786847297668457,-0.09360932006835937,9.611352168273925,0.48502467485112594,-0.4793387726996599,-2.682539403526467,25.5,1847,0,21.899999618530273,29.100000381469727,-72.30000305175781,2779096485
-0.7725445602416992,-0.09627775497436523,9.595346867370605,0.48542924230744233,-0.4656903052333948,-2.662667361662052,25.600000381469727,1848,0,21.899999618530273,29.100000381469727,-72.30000305175781,2779096485
-0.876839582824707,-0.07907855758666991,9.5480231300354,0.48705275190211655,-0.4526829471898413,-2.6434311694772323,25.600000381469727,1849,0,21.600000381469727,28.350000381469727,-71.8499984741211,2779096485
-0.9647290710449219,-0.07498440780639648,9.543249226379395,0.4841310977588098,-0.44007670780901625,-2.6265321541331987,25.600000381469727,1850,0,21.600000381469727,28.350000381469727,-71.8499984741211,2779096485
-1.0607220344543458,-0.06936480255126953,9.521062176513672,0.4820984667023865,-0.4317559007247444,-2.608443984107395,25.600000381469727,1851,0,21.600000381469727,28.350000381469727,-71.8499984741211,2779096485
-1.1551622520446776,-0.06899204635620117,9.491479069519043,0.4834365120617769,-0.42460994714728717,-2.5842061157715723,25.299999237060547,1852,0,21.600000381469727,28.350000381469727,-71.8499984741211,2779096485
-1.2489755020141602,-0.06709327392578125,9.476396369171143,0.48551557533148665,-0.4217601983529184,-2.565479206536411,25.299999237060547,1853,0,22.200000762939453,28.049999237060547,-71.8499984741211,2779096485
-1.3561437492370605,-0.07254973526000977,9.444335485839844,0.48751470382162704,-0.42013741446963626,-2.5443933291449934,25.399999618530273,1854,0,22.200000762939453,28.049999237060547,-71.8499984741211,2779096485
-1.4384071647644043,-0.07692452697753906,9.409712375640868,0.4954912307583449,-0.420409316557162,-2.5233212336121222,25.5,1855,0,22.200000762939453,28.049999237060547,-71.8499984741211,2779096485
-1.5435434028625488,-0.092707804107666,9.383408820343018,0.503610816049936,-0.4250522582538933,-2.5003330469513285,25.5,1856,0,22.200000762939453,28.049999237060547,-71.8499984741211,2779096485
-1.624430226135254,-0.09491372375488281,9.314457746887207,0.5171384758720825,-0.4292232944666083,-2.4751920807223584,25.5,1857,0,22.649999618530273,27.899999618530273,-72.44999694824219,2779096485
-1.6638901947021483,-0.0941970718383789,9.264959642028808,0.5281007459232994,-0.436987660676543,-2.4493956905799155,25.700000762939453,1858,0,22.649999618530273,27.899999618530273,-72.44999694824219,2779096485
-1.739325154876709,-0.09526819915771484,9.221226940155029,0.5454818400266436,-0.4446333963765353,-2.422988211497943,25.700000762939453,1859,0,22.649999618530273,27.899999618530273,-72.44999694824219,2779096485
-1.819513494873047,-0.086785986328125,9.161312260437011,0.5618229231261398,-0.45650307864183626,-2.3963811085199325,25.700000762939453,1860,0,22.649999618530273,27.899999618530273,-72.44999694824219,2779096485
-1.9239792129516602,-0.06450671005249023,9.08464680480957,0.5942755248407452,-0.47447850374366624,-2.352060495673599,25.600000381469727,1861,0,22.649999618530273,27.149999618530273,-72.75,2779096485
-1.9867686500549315,-0.025030255126953123,9.095356769561768,0.61418911201788,-0.4865105323079027,-2.322748812811242,25.5,1862,0,22.649999618530273,27.149999618530273,-72.75,2779096485
-2.054235353088379,0.01610698547363281,9.034246772766114,0.6346114095650429,-0.5002606126848614,-2.290807105258744,25.5,1863,0,22.649999618530273,27.149999618530273,-72.75,2779096485
-2.159832162475586,0.055425605010986326,9.00490288619995,0.6579731445135694,-0.512525987422207,-2.2586093081375833,25.399999618530273,1864,0,22.799999237060547,27.450000762939453,-72.0,2779096485
-2.2621284103393555,0.10101300354003906,8.998217948150634,0.6788437719113606,-0.5221925297434641,-2.2265021783351115,25.399999618530273,1865,0,22.799999237060547,27.450000762939453,-72.0,2779096485
-2.3437414558410645,0.1462558334350586,8.943491536712646,0.7010310328535252,-0.5349735390696245,-2.191581591965777,25.399999618530273,1866,0,22.799999237060547,27.450000762939453,-72.0,2779096485
-2.453552866363525,0.20484222106933594,8.970206839752198,0.7197489206305561,-0.5467476338261567,-2.1591879326635928,25.5,1867,0,22.799999237060547,27.450000762939453,-72.0,2779096485
-2.553585772705078,0.2791505386352539,8.908215364837647,0.7408034259845482,-0.560325580787241,-2.122902309797405,25.5,1868,0,22.649999618530273,25.950000762939453,-73.3499984741211,2779096485
-2.6278998847961423,0.32302197265625,9.007376998901368,0.7567081235108231,-0.5731202321559917,-2.0888653203242695,25.5,1869,0,22.649999618530273,25.950000762939453,-73.3499984741211,2779096485
-2.6615653656005858,0.3835507972717285,9.000098551940917,0.7726322887445326,-0.5865767789196191,-2.052561807673582,25.600000381469727,1870,0,22.649999618530273,25.950000762939453,-73.3499984741211,2779096485
-2.6404006195068357,0.4181821319580078,9.032195174407958,0.7862660755353895,-0.5976223659649665,-2.0139953471390815,25.600000381469727,1871,0,22.649999618530273,25.950000762939453,-73.3499984741211,2779096485
-2.5772678100585935,0.47686934432983397,9.030667102050781,0.7981410175438072,-0.6053670247829701,-1.9762494464782114,25.600000381469727,1872,0,22.5,26.549999237060547,-72.5999984741211,2779096485
-2.482980567932129,0.544223184967041,8.982231077575683,0.8076390350324422,-0.6141287248405773,-1.9364095488719215,25.5,1873,0,22.5,26.549999237060547,-72.5999984741211,2779096485
-2.389310087585449,0.637727717590332,8.908015210723876,0.8181720035188885,-0.6188341376381499,-1.8943236677178457,25.399999618530273,1874,0,22.5,26.549999237060547,-72.5999984741211,2779096485
-2.3246128311157226,0.7010764198303222,8.889278931427002,0.8169438135537089,-0.623621888718159,-1.8542790529199682,25.399999618530273,1875,0,22.5,26.549999237060547,-72.5999984741211,2779096485
-2.283548751068115,0.7742094581604003,8.85853871383667,0.8130033471686857,-0.6257315117611675,-1.815411668500162,25.5,1876,0,22.649999618530273,25.950000762939453,-73.3499984741211,2779096485
-2.2653672882080076,0.8686482551574707,8.79698493118286,0.8056023759448978,-0.6254417465207527,-1.7768112992673148,25.600000381469727,1877,0,22.649999618530273,25.950000762939453,-73.3499984741211,2779096485
-2.254452010345459,0.9330034103393554,8.705562577056885,0.7901378190489555,-0.6241342209872449,-1.7366478542224149,25.600000381469727,1878,0,22.649999618530273,25.950000762939453,-73.3499984741211,2779096485
-2.2527751869201658,0.9962436241149902,8.70742815246582,0.7769387600135529,-0.6231968215794926,-1.6970344052020583,25.600000381469727,1879,0,22.649999618530273,25.950000762939453,-73.3499984741211,2779096485
-2.257052219390869,1.0864014633178711,8.583045417785645,0.7578847413618477,-0.6240061695450111,-1.6585719610811185,25.5,1880,0,22.950000762939453,25.950000762939453,-72.9000015258789,2779096485
-2.2494095397949216,1.1553243492126464,8.543330452728272,0.7412925421469908,-0.6251214348228447,-1.6183961389951373,25.5,1881,0,22.950000762939453,25.950000762939453,-72.9000015258789,2779096485
-2.241195632171631,1.2192762054443358,8.488311286926269,0.7175495490594287,-0.6274392171931259,-1.5817227399031908,25.5,1882,0,22.950000762939453,25.950000762939453,-72.9000015258789,2779096485
-2.211336107635498,1.3045824195861817,8.399017990875244,0.6931989291417299,-0.630922085926991,-1.5448620340351635,25.5,1883,0,22.950000762939453,25.950000762939453,-72.9000015258789,2779096485
-2.1359230545043943,1.3766963691711425,8.349107427978515,0.6681578114792434,-0.6366744805525166,-1.5111602566461328,25.5,1884,0,22.950000762939453,25.649999618530273,-72.1500015258789,2779096485
-2.0429413375854493,1.4563378929138182,8.291056454467773,0.6415548563746022,-0.6449769451149067,-1.4818811109541707,25.5,1885,0,22.950000762939453,25.649999618530273,-72.1500015258789,2779096485
-1.9377026298522948,1.5302185371398924,8.230711035919189,0.6122463493318238,-0.6529354025037525,-1.4540425889281812,25.5,1886,0,22.950000762939453,25.649999618530273,-72.1500015258789,2779096485
-1.7472638786315917,1.6248682548522948,8.113166401672363,0.5847776271943586,-0.6630697224093645,-1.4291910217549784,25.5,1887,0,22.950000762939453,25.649999618530273,-72.1500015258789,2779096485
-1.6044390396118164,1.8159422729492187,8.048324618530273,0.5568825662588152,-0.6765359897109039,-1.405865632297179,25.5,1888,0,22.799999237060547,25.950000762939453,-72.30000305175781,2779096485
-1.5007336753845215,2.464995446014404,8.457340671539306,0.5240080465935107,-0.6852460777069401,-1.4030947996232697,25.5,1889,0,22.799999237060547,25.950000762939453,-72.30000305175781,2779096485
-1.3244802955627442,2.807717720031738,8.84191403427124,0.49875285738617203,-0.6686364813923819,-1.430321300603354,25.5,1890,0,22.799999237060547,25.950000762939453,-72.30000305175781,2779096485
-1.1633833747863769,2.4947549682617187,8.423178693389893,0.4733294096623184,-0.6539303128748497,-1.4598948720676066,25.5,1891,0,22.799999237060547,25.950000762939453,-72.30000305175781,2779096485
-0.986927074432373,2.324069005584717,8.057799040985108,0.4241211039588544,-0.6548123052165036,-1.4736656518639957,25.5,1892,0,22.049999237060547,26.100000381469727,-73.19999694824219,2779096485
-0.8390423065185547,2.421975545501709,8.091295845031738,0.3712368503438214,-0.6517551560957675,-1.487890247622821,25.5,1893,0,22.049999237060547,26.100000381469727,-73.19999694824219,2779096485
-0.701341024017334,2.578502268218994,8.214343035125733,0.3145007270547206,-0.643124623378848,-1.5109044999726047,25.5,1894,0,22.049999237060547,26.100000381469727,-73.19999694824219,2779096485
-0.590658715057373,2.645166859436035,8.227985627746582,0.2541651351821297,-0.6261925116005947,-1.5382818623695025,25.5,1895,0,22.049999237060547,26.100000381469727,-73.19999694824219,2779096485
-0.4848837707519531,2.6073225540161133,8.166368030548096,0.18954041587699844,-0.6040060362909464,-1.569647022181572,25.5,1896,0,21.600000381469727,25.200000762939453,-73.19999694824219,2779096485
-0.4060594993591308,2.54767845993042,8.172759915161132,0.11680832187379028,-0.5847812158039027,-1.600249206320285,25.5,1897,0,21.600000381469727,25.200000762939453,-73.19999694824219,2779096485
-0.3522888854980469,2.5121164497375488,8.190325401306152,0.04808817349877182,-0.5653397604794754,-1.6268818290392657,25.5,1898,0,21.600000381469727,25.200000762939453,-73.19999694824219,2779096485
-0.3017590187072754,2.481512833404541,8.228906658172606,-0.021422580845722503,-0.5441858060331604,-1.6524310978079553,25.5,1899,0,21.600000381469727,25.200000762939453,-73.19999694824219,2779096485
-0.25411482543945313,2.42801990814209,8.246461041259765,-0.09413177166371338,-0.5234025436343288,-1.6747978158589416,25.5,1900,0,22.200000762939453,24.75,-73.05000305175781,2779096485
-0.2258034484863281,2.3555403800964356,8.2509968460083,-0.16721371847901825,-0.4976195891394933,-1.6977244169199504,25.5,1901,0,22.200000762939453,24.75,-73.05000305175781,2779096485
-0.21931309432983398,2.2518617454528806,8.28389887008667,-0.24143923997434968,-0.4760705813797908,-1.7183689552585533,25.5,1902,0,22.200000762939453,24.75,-73.05000305175781,2779096485
-0.23671506271362303,2.112056265258789,8.343830372619628,-0.31332554065277207,-0.44901847750249174,-1.7355094460748677,25.5,1903,0,21.75,24.450000762939453,-73.6500015258789,2779096485
-0.2682431861877441,1.9730654579162596,8.402435826110839,-0.37821967864772965,-0.4261615114456073,-1.7510295764844752,25.5,1904,0,21.75,24.450000762939453,-73.6500015258789,2779096485
-0.3297489677429199,1.8245748443603516,8.469226177215576,-0.44239644760268526,-0.403399107580479,-1.7608464609061367,25.600000381469727,1905,0,21.75,24.450000762939453,-73.6500015258789,2779096485
-0.4016300148010254,1.6756253044128417,8.570511000061035,-0.49532065529169755,-0.3853673832535916,-1.7659776665537676,25.600000381469727,1906,0,21.75,24.450000762939453,-73.6500015258789,2779096485
-0.48952346572875977,1.5353213455200194,8.656171614837646,-0.5398567644740568,-0.3735855386983406,-1.7675847244709209,25.600000381469727,1907,0,22.649999618530273,23.850000381469727,-72.30000305175781,2779096485
-0.5926903129577636,1.4093790237426758,8.744363502502441,-0.5744302876925177,-0.3656965565239548,-1.76504721133851,25.600000381469727,1908,0,22.649999618530273,23.850000381469727,-72.30000305175781,2779096485
-0.7081341888427735,1.2814400581359864,8.848116867828368,-0.5986095931163717,-0.36610093755899614,-1.755816209036834,25.5,1909,0,22.649999618530273,23.850000381469727,-72.30000305175781,2779096485
-0.8446228828430176,1.1395293334960936,8.934930929565429,-0.6167579772140084,-0.3689494812729799,-1.7403493618223702,25.5,1910,0,22.649999618530273,23.850000381469727,-72.30000305175781,2779096485
-0.9684759605407715,0.9674756385803223,9.012762580108642,-0.6240598655301208,-0.3775766051437276,-1.722183021361207,25.600000381469727,1911,0,21.149999618530273,23.100000381469727,-73.19999694824219,2779096485
-1.0784130187988281,0.8166513641357421,9.095884893798829,-0.6257521845489872,-0.3924710990964505,-1.6947776291940289,25.600000381469727,1912,0,21.149999618530273,23.100000381469727,-73.19999694824219,2779096485
-1.1685887649536133,0.6836987510681152,9.165010849761963,-0.623431119832685,-0.4069311515835344,-1.6694705948985253,25.600000381469727,1913,0,21.149999618530273,23.100000381469727,-73.19999694824219,2779096485
-1.2126197914123535,0.5569558876037598,9.227080980682373,-0.6180757492597398,-0.42452658354783784,-1.6387304856479048,25.600000381469727,1914,0,21.149999618530273,23.100000381469727,-73.19999694824219,2779096485
-1.2279736755371093,0.4408636604309082,9.299338260650634,-0.6127348729409279,-0.4426839624719943,-1.6076265087000474,25.5,1915,0,22.049999237060547,22.799999237060547,-72.75,2779096485
-1.2209645431518554,0.3496166000366211,9.33974254989624,-0.603096533495421,-0.46114962892181977,-1.575268222834799,25.5,1916,0,22.049999237060547,22.799999237060547,-72.75,2779096485
-1.191685181427002,0.2932059257507324,9.357362691497803,-0.5956366198592119,-0.48069522050205626,-1.543079680198363,25.5,1917,0,22.049999237060547,22.799999237060547,-72.75,2779096485
-1.1265503448486327,0.24641711654663084,9.39241534423828,-0.587451147962705,-0.5002180620288371,-1.5136095991733598,25.700000762939453,1918,0,22.049999237060547,22.799999237060547,-72.75,2779096485
-1.016872582244873,0.1827705009460449,9.4064302444458,-0.5798894017050139,-0.524119533173878,-1.4874730501251219,25.700000762939453,1919,0,22.200000762939453,21.899999618530273,-73.80000305175781,2779096485
0.14917077865600586,0.10156153945922851,8.682138227844238,-0.5812229063747769,-0.5475488857820169,-1.4788742756039832,25.700000762939453,1920,0,22.200000762939453,21.899999618530273,-73.80000305175781,2779096485
0.6178567955017089,0.05708829727172851,9.10347931060791,-0.5923780092612986,-0.5952608944373029,-1.4907125259107343,25.600000381469727,1921,0,22.200000762939453,21.899999618530273,-73.80000305175781,2779096485
0.6677413391113282,0.2697549964904785,8.506664529418945,-0.6032870493805933,-0.6296735627270283,-1.503955953209593,25.5,1922,0,22.200000762939453,21.899999618530273,-73.80000305175781,2779096485
0.5822587844848632,0.34937659454345704,8.500677925109864,-0.6259048702311348,-0.652264172729319,-1.5211839155513098,25.5,1923,0,21.450000762939453,21.0,-73.6500015258789,2779096485
0.535583211517334,0.33448537521362304,8.780723998260498,-0.6572247895944973,-0.6831323667116865,-1.540435247806823,25.5,1924,0,21.450000762939453,21.0,-73.6500015258789,2779096485
0.3256012840270996,0.40607463989257814,8.610244283294678,-0.6762335877712036,-0.7175171916524066,-1.5526539972517044,25.5,1925,0,21.450000762939453,21.0,-73.6500015258789,2779096485
0.1509838668823242,0.4735288940429687,8.534197496032714,-0.6906970091570434,-0.7555219315957454,-1.558537226322784,25.5,1926,0,21.450000762939453,21.0,-73.6500015258789,2779096485
0.019238159942626953,0.49086570205688473,8.70750598602295,-0.715440119095598,-0.7967752952829784,-1.5570382394819233,25.600000381469727,1927,0,21.899999618530273,21.0,-73.94999694824219,2779096485
-0.20323799743652343,0.5702396682739258,8.71217211151123,-0.7416804781624139,-0.8315401732823491,-1.5528400922894976,25.600000381469727,1928,0,21.899999618530273,21.0,-73.94999694824219,2779096485
-0.4048961456298828,0.6246103332519531,8.775767062377929,-0.760452028635041,-0.8600959045586763,-1.5438005113477584,25.600000381469727,1929,0,21.899999618530273,21.0,-73.94999694824219,2779096485
-0.4690367538452148,0.5844730407714843,9.100484812164307,-0.7809880564757742,-0.8866418413847706,-1.5279708816741941,25.600000381469727,1930,0,21.899999618530273,21.0,-73.94999694824219,2779096485
-0.5706190414428711,0.6346283195495606,9.198241815948487,-0.7986567253695516,-0.9106046584451,-1.5135187853808123,25.5,1931,0,22.350000381469727,20.549999237060547,-74.55000305175781,2779096485
-0.6453979866027831,0.719261994934082,9.274891046905518,-0.8099566775867671,-0.928929243937148,-1.4939465755056633,25.5,1932,0,22.350000381469727,20.549999237060547,-74.55000305175781,2779096485
-0.5961795516967773,0.7310046562194824,9.668627423095703,-0.8228257243600579,-0.9478801583079594,-1.4740044991629633,25.5,1933,0,22.350000381469727,20.549999237060547,-74.55000305175781,2779096485
-0.5457419860839844,0.8243757278442383,9.80378494644165,-0.8341494386319364,-0.9576041383556319,-1.4556395800964832,25.5,1934,0,22.350000381469727,20.549999237060547,-74.55000305175781,2779096485
-0.4633694465637207,0.9146974960327148,10.015325003051757,-0.841664879176492,-0.956288470207147,-1.436873908551922,25.5,1935,0,20.850000381469727,19.649999618530273,-74.4000015258789,2779096485
-0.3295564025878906,0.9590546607971191,10.378202056121825,-0.8540073657426709,-0.9449448022009382,-1.4196660464183943,25.5,1936,0,20.850000381469727,19.649999618530273,-74.4000015258789,2779096485
-0.23567088928222654,1.0468319595336915,10.534751358795166,-0.8664376900188997,-0.9230057878180794,-1.4066593475072062,25.600000381469727,1937,0,20.850000381469727,19.649999618530273,-74.4000015258789,2779096485
-0.09945741653442383,1.1176077850341797,10.685952389526367,-0.881438370861457,-0.8901071931766861,-1.3997497827643826,25.600000381469727,1938,0,20.850000381469727,19.649999618530273,-74.4000015258789,2779096485
0.05846182403564453,1.1603017341613768,10.975631169128418,-0.8933145312660651,-0.8522465835105519,-1.3993883851490396,25.600000381469727,1939,0,20.549999237060547,19.049999237060547,-75.1500015258789,2779096485
0.16941385879516602,1.1942865493774413,11.163265968322754,-0.8967950031549655,-0.8115166841056848,-1.3987966573905015,25.5,1940,0,20.549999237060547,19.049999237060547,-75.1500015258789,2779096485
0.288659578704834,1.2505294815063477,11.21863800201416,-0.8975660149168558,-0.7655254636611224,-1.4054764712276628,25.299999237060547,1941,0,20.549999237060547,19.049999237060547,-75.1500015258789,2779096485
0.42419737243652345,1.2920993301391601,11.319333540344237,-0.8970759533322327,-0.7212135526935907,-1.4159566558616665,25.299999237060547,1942,0,20.549999237060547,19.049999237060547,-75.1500015258789,2779096485
0.5184659225463867,1.3273506790161131,11.402914743041991,-0.8941111959269792,-0.6775219918082162,-1.4313319502563855,25.399999618530273,1943,0,20.700000762939453,18.899999618530273,-74.25,2779096485
0.5599079177856445,1.3628122009277344,11.350009532165528,-0.883999020205679,-0.6304479500455771,-1.4506377042084004,25.5,1944,0,20.700000762939453,18.899999618530273,-74.25,2779096485
0.5717518898010254,1.3473679222106933,11.362662718963623,-0.874944439009203,-0.5893505677023181,-1.4710970662997798,25.5,1945,0,20.700000762939453,18.899999618530273,-74.25,2779096485
0.5988003967285156,1.3916021308898925,11.259905488586426,-0.8636088736705552,-0.5526421014369589,-1.4910961875526374,25.5,1946,0,20.700000762939453,18.899999618530273,-74.25,2779096485
0.563159506225586,1.4110973434448242,11.196676041412353,-0.8519149134306727,-0.5187448480252599,-1.514799293145247,25.5,1947,0,21.149999618530273,18.149999618530273,-74.55000305175781,2779096485
0.5376051643371582,1.3838029243469239,11.202072538757324,-0.8362977574053176,-0.4840100171406815,-1.5353496687662542,25.5,1948,0,21.149999618530273,18.149999618530273,-74.55000305175781,2779096485
0.5330960144042969,1.3975309394836426,11.017022359466552,-0.8215372670598239,-0.45277948012079056,-1.5576051199476617,25.600000381469727,1949,0,21.149999618530273,18.149999618530273,-74.55000305175781,2779096485
0.5292352157592773,1.4049772033691406,10.936519358062744,-0.8071108103496605,-0.4209919363048347,-1.5807665252624665,25.600000381469727,1950,0,21.149999618530273,18.149999618530273,-74.55000305175781,2779096485
0.5145866561889648,1.3773914878845215,10.904625955200196,-0.7902515560004285,-0.3936061782926581,-1.600752124314982,25.600000381469727,1951,0,19.350000381469727,16.649999618530273,-76.05000305175781,2779096485
0.4607492744445801,1.3703122230529785,10.658842348480224,-0.767525524257638,-0.3729689436732947,-1.623994276673483,25.600000381469727,1952,0,19.350000381469727,16.649999618530273,-76.05000305175781,2779096485
0.47050639495849605,1.3933498344421387,10.592185121917725,-0.7464970845926359,-0.3592147553703827,-1.649650338201151,25.700000762939453,1953,0,19.350000381469727,16.649999618530273,-76.05000305175781,2779096485
0.45410037460327146,1.4044462379455567,10.501044456481933,-0.7213682357465422,-0.3550017410812738,-1.6743825624688249,25.700000762939453,1954,0,20.25,16.200000762939453,-75.9000015258789,2779096485
0.37284232788085936,1.3510460624694824,10.490557188415528,-0.6937956236956669,-0.35113375262481905,-1.6977637984142993,25.700000762939453,1955,0,20.25,16.200000762939453,-75.9000015258789,2779096485
0.3620962875366211,1.275430387878418,10.643422294616698,-0.6615414008492982,-0.3444099100772385,-1.7190893203547608,25.700000762939453,1956,0,20.25,16.200000762939453,-75.9000015258789,2779096485
0.36243083724975583,1.2487918716430664,10.645727618408202,-0.6222077302153373,-0.33602919518465696,-1.7394486740899924,25.600000381469727,1957,0,20.25,16.200000762939453,-75.9000015258789,2779096485
0.3725777236938476,1.2053862800598145,10.690011547851562,-0.586380444027505,-0.3237201978689557,-1.7605340388229038,25.600000381469727,1958,0,20.399999618530273,15.899999618530273,-75.44999694824219,2779096485
0.3290342597961426,1.1270551788330079,10.736988548278807,-0.5519858918909704,-0.30597812559813753,-1.7817245984181505,25.600000381469727,1959,0,20.399999618530273,15.899999618530273,-75.44999694824219,2779096485
0.31442375717163085,1.0931010932922363,10.705475004577636,-0.5219310139841182,-0.28917900542590624,-1.801447523236254,25.5,1960,0,20.399999618530273,15.899999618530273,-75.44999694824219,2779096485
0.3015501167297363,1.0512971458435059,10.709295503234863,-0.48899829759149277,-0.2677930230712126,-1.822192289641793,25.5,1961,0,20.399999618530273,15.899999618530273,-75.44999694824219,2779096485
0.295129109954834,0.9823085014343261,10.806092447662353,-0.4604497368763513,-0.24850945990882828,-1.841738034353791,25.5,1962,0,20.850000381469727,14.100000381469727,-75.9000015258789,2779096485
0.24682770538330076,0.9107511253356934,10.765609240722656,-0.4245463508608931,-0.22854804901674713,-1.8615825923959453,25.5,1963,0,20.850000381469727,14.100000381469727,-75.9000015258789,2779096485
0.13809531021118163,0.7865300392150879,10.806850184631347,-0.38777876907764314,-0.20638464999778564,-1.8756425914847294,25.5,1964,0,20.850000381469727,14.100000381469727,-75.9000015258789,2779096485
0.10334195404052735,0.7199475433349609,10.800026626586913,-0.3578144186735234,-0.18392398893999237,-1.8866010931630297,25.600000381469727,1965,0,20.850000381469727,14.100000381469727,-75.9000015258789,2779096485
0.12443391342163085,0.7058455009460449,10.691310418701171,-0.32382387472948,-0.16009393045909118,-1.8983929312302026,25.600000381469727,1966,0,20.399999618530273,14.100000381469727,-75.9000015258789,2779096485
0.177653897857666,0.7147457794189452,10.570771772003173,-0.29524016694609373,-0.14457878681859054,-1.9127633616893185,25.600000381469727,1967,0,20.399999618530273,14.100000381469727,-75.9000015258789,2779096485
0.24113105163574217,0.7386377655029297,10.440519706726073,-0.273969958861093,-0.13112253300268098,-1.9279158227392592,25.600000381469727,1968,0,20.399999618530273,14.100000381469727,-75.9000015258789,2779096485
0.21070579452514648,0.7125022514343261,10.337389196777343,-0.2603639488402147,-0.12099019715206741,-1.9438448216103141,25.600000381469727,1969,0,20.399999618530273,14.100000381469727,-75.9000015258789,2779096485
0.23209873275756834,0.708776596069336,10.28849349822998,-0.25097015416012375,-0.10818672406226654,-1.9584106881446823,25.600000381469727,1970,0,20.25,14.399999618530273,-74.69999694824219,2779096485
0.23431474609375,0.7032113098144531,10.227660816192627,-0.25100098024952955,-0.09546918452234925,-1.971404124513733,25.600000381469727,1971,0,20.25,14.399999618530273,-74.69999694824219,2779096485
0.2265055953979492,0.7043361953735351,10.147675807952881,-0.25106232616481794,-0.0813476997023204,-1.9827731125238317,25.5,1972,0,20.25,14.399999618530273,-74.69999694824219,2779096485
0.19554825134277343,0.6700588500976562,10.079206203460693,-0.26130204732774825,-0.0689083406521556,-1.9956395294255642,25.5,1973,0,20.25,14.399999618530273,-74.69999694824219,2779096485
0.16340086135864257,0.648238126373291,9.981042311859131,-0.273813977517119,-0.05589435799543609,-2.0038819397057854,25.5,1974,0,19.950000762939453,13.199999809265137,-76.05000305175781,2779096485
0.1379669334411621,0.6473750038146973,9.862070168304443,-0.2899051096342236,-0.042346451491241305,-2.0122043313708953,25.5,1975,0,19.950000762939453,13.199999809265137,-76.05000305175781,2779096485
0.022129889678955076,0.5884110000610351,9.758990911865235,-0.30676974356882064,-0.03309922388073563,-2.0198750741533513,25.5,1976,0,19.950000762939453,13.199999809265137,-76.05000305175781,2779096485
-0.0651007797241211,0.5228514060974121,9.682303399658203,-0.3245863577180379,-0.02671928198025635,-2.0270796838534144,25.5,1977,0,19.950000762939453,13.199999809265137,-76.05000305175781,2779096485
-0.143772599029541,0.4482937744140625,9.632638188171386,-0.34037607326503877,-0.027844254480196534,-2.0310051166941876,25.5,1978,0,20.100000381469727,12.300000190734863,-75.5999984741211,2779096485
-0.22369786758422852,0.3572067924499512,9.628248293304443,-0.3520661452897563,-0.02884674820244568,-2.0315042796317737,25.5,1979,0,20.100000381469727,12.300000190734863,-75.5999984741211,2779096485
-0.2505209114074707,0.27929910278320313,9.612126204681395,-0.35448869641660125,-0.036205395138900455,-2.0316511263332715,25.5,1980,0,20.100000381469727,12.300000190734863,-75.5999984741211,2779096485
-0.24799117126464842,0.2168430191040039,9.592633496856688,-0.3524541212525955,-0.04253704061334305,-2.029643582254144,25.600000381469727,1981,0,20.100000381469727,12.300000190734863,-75.5999984741211,2779096485
-0.2288322280883789,0.15853424530029298,9.55731508102417,-0.3523225078324283,-0.05298667878985352,-2.0275242852785427,25.600000381469727,1982,0,18.75,12.449999809265137,-75.0,2779096485
-0.25951322937011717,0.08272290267944336,9.53019188079834,-0.3477634889989714,-0.06068973237401321,-2.0267886669272963,25.600000381469727,1983,0,18.75,12.449999809265137,-75.0,2779096485
-0.2719786735534668,0.019753685760498046,9.482955846405028,-0.3425017618272127,-0.07164513812756759,-2.027855222989127,25.600000381469727,1984,0,18.75,12.449999809265137,-75.0,2779096485
-0.26801495666503905,-0.027535658264160157,9.47229440612793,-0.33349441845024735,-0.08610433840310852,-2.0268401724624243,25.5,1985,0,18.75,12.449999809265137,-75.0,2779096485
-0.28422347717285157,-0.057831977844238276,9.457624649810791,-0.3214095594282495,-0.10486386470349655,-2.027722064935538,25.5,1986,0,20.25,12.449999809265137,-75.75,2779096485
-0.30175195312499997,-0.06890800704956054,9.453564669036865,-0.31081365378777437,-0.12388091202162277,-2.02597199526883,25.5,1987,0,20.25,12.449999809265137,-75.75,2779096485
-0.3104609001159668,-0.07319053497314452,9.473856198883057,-0.301685409556053,-0.145019699765634,-2.022488660481778,25.5,1988,0,20.25,12.449999809265137,-75.75,2779096485
-0.2272686782836914,0.01813731231689453,9.74905617980957,-0.2813571215947238,-0.1899694444677591,-2.0178745008983294,25.5,1991,0,19.200000762939453,11.399999618530273,-75.75,2779096485
-0.1723949737548828,0.07718195343017578,9.92547565689087,-0.2794272818977684,-0.19552751488777984,-2.0166845539261407,25.399999618530273,1992,0,19.200000762939453,11.399999618530273,-75.75,2779096485
-0.11033265609741211,0.15706247329711914,10.088630867767334,-0.2773301956855054,-0.19634333433470277,-2.0179566927069073,25.399999618530273,1993,0,19.200000762939453,11.399999618530273,-75.75,2779096485
-0.03809313354492187,0.2407735855102539,10.268563883209229,-0.27322695023787247,-0.18555079419649292,-2.021358801081271,25.600000381469727,1994,0,20.399999618530273,10.649999618530273,-76.19999694824219,2779096485
0.054411002349853514,0.339748299407959,10.45441737060547,-0.2695603100742494,-0.16849025813345597,-2.029217962509555,25.700000762939453,1995,0,20.399999618530273,10.649999618530273,-76.19999694824219,2779096485
0.1333919876098633,0.4428856506347656,10.615917366027832,-0.26281036189026274,-0.14704244383657836,-2.039458522568223,25.700000762939453,1996,0,20.399999618530273,10.649999618530273,-76.19999694824219,2779096485
0.23963554077148436,0.5406888610839844,10.745881761169434,-0.24910476961900802,-0.1198897523655983,-2.052641169873521,25.700000762939453,1997,0,20.399999618530273,10.649999618530273,-76.19999694824219,2779096485
0.40533925857543945,0.6335775291442871,10.84137781600952,-0.23260760530699753,-0.09325467953843156,-2.0733475934175294,25.600000381469727,1998,0,19.950000762939453,10.350000381469727,-76.19999694824219,2779096485
0.5041362861633301,0.7249023109436035,10.950186923217773,-0.21729719883179247,-0.06295439799671783,-2.1039319610086724,25.600000381469727,1999,0,19.950000762939453,10.350000381469727,-76.19999694824219,2779096485
0.5519108749389648,0.7986839248657226,11.055222149658203,-0.18988971608317276,-0.030355914976503143,-2.1346575760051594,25.600000381469727,2000,0,19.950000762939453,10.350000381469727,-76.19999694824219,2779096485
0.5824165077209472,0.82718125,11.161809748077392,-0.15924708518568206,0.0005918143112730407,-2.1700973189938266,25.600000381469727,2001,0,19.049999237060547,9.449999809265137,-76.5,2779096485
0.5523892036437988,0.8556451164245605,11.210936554718018,-0.12475556069662125,0.02873094730114212,-2.2093437378131737,25.600000381469727,2002,0,19.049999237060547,9.449999809265137,-76.5,2779096485
0.5678693336486816,0.852781649017334,11.285163188171387,-0.08389324892326538,0.05652431543115967,-2.2477961285010672,25.600000381469727,2003,0,19.049999237060547,9.449999809265137,-76.5,2779096485
0.5209573440551758,0.7976850608825683,11.481888101959228,-0.03124881296274597,0.08361611372423355,-2.285743690376195,25.600000381469727,2004,0,19.049999237060547,9.449999809265137,-76.5,2779096485
0.3862231948852539,0.667453855895996,11.740808308410644,0.035526175881251676,0.11168676352714188,-2.3155941573549828,25.600000381469727,2005,0,19.350000381469727,9.899999618530273,-75.9000015258789,2779096485
0.2630687873840332,0.5559573226928711,11.829971545410157,0.11729409576908784,0.14551074671985367,-2.345698050741361,25.600000381469727,2006,0,19.350000381469727,9.899999618530273,-75.9000015258789,2779096485
0.1656969139099121,0.5528332138061524,11.689156995391846,0.19407542631339325,0.1748155053634236,-2.3740485921150105,25.5,2007,0,19.350000381469727,9.899999618530273,-75.9000015258789,2779096485
0.12129619674682617,0.3814369171142578,11.956245500946045,0.2804732250929036,0.20651795452523347,-2.400991792678182,25.5,2008,0,19.350000381469727,9.899999618530273,-75.9000015258789,2779096485
0.027299877166748046,0.3775988105773926,11.711177424621582,0.37141863106067824,0.23362525241574508,-2.420237785295746,25.5,2009,0,20.25,8.699999809265137,-75.5999984741211,2779096485
-0.01712824249267578,0.30886004104614256,11.71080799560547,0.4718098299284703,0.26150774988893233,-2.4389757399914527,25.600000381469727,2010,0,20.25,8.699999809265137,-75.5999984741211,2779096485
-0.1102285041809082,0.18870484237670898,11.806189318847656,0.5534873354979196,0.2786639533555702,-2.4551663811220044,25.700000762939453,2011,0,20.25,8.699999809265137,-75.5999984741211,2779096485
-0.18257834701538087,0.25947251815795896,11.288125162506104,0.651429185180582,0.3006465104219527,-2.4669935659945024,25.700000762939453,2012,0,20.25,8.699999809265137,-75.5999984741211,2779096485
-0.13986966857910155,0.16484317474365234,11.393348430633544,0.7436062831703456,0.31468311364072127,-2.4782293293719855,25.600000381469727,2013,0,19.350000381469727,8.25,-75.75,2779096485
-0.12245001754760741,0.1313370620727539,11.415779149627685,0.8193189337818656,0.31900775432615375,-2.4904604824895586,25.5,2014,0,19.350000381469727,8.25,-75.75,2779096485
-0.18882073287963866,0.302261385345459,10.778384673309326,0.8993212644318481,0.3259347228265814,-2.4975542314521064,25.5,2015,0,19.350000381469727,8.25,-75.75,2779096485
-0.03464011993408203,0.2727633644104004,10.930689990997314,0.9757751859539893,0.322960244883416,-2.5084040428691647,25.5,2016,0,19.350000381469727,8.25,-75.75,2779096485
-0.08155932464599609,0.3214332260131836,10.897260216522216,1.031051817080924,0.30968623783755084,-2.514888167630772,25.5,2017,0,18.600000381469727,9.0,-76.5,2779096485
-0.2798014320373535,0.5840476104736327,10.270412112426758,1.0869887989693139,0.30969493971635287,-2.52051570660735,25.5,2018,0,18.600000381469727,9.0,-76.5,2779096485
0.01788104476928711,0.680368244934082,10.305824436950683,1.123799970041406,0.30066238286194047,-2.532112161862492,25.5,2019,0,18.600000381469727,9.0,-76.5,2779096485
0.21832738952636718,0.7996516853332519,10.247235993194579,1.141913413465781,0.2843501284810461,-2.543527355717186,25.5,2020,0,18.600000381469727,9.0,-76.5,2779096485
0.1915986656188965,1.0472585861206054,9.76830989151001,1.1593080031378562,0.2757309807777084,-2.5573214115413427,25.5,2021,0,19.049999237060547,8.100000381469727,-76.3499984741211,2779096485
0.2919095222473144,1.182324331665039,9.590682947540284,1.1613373185587452,0.2694441096987851,-2.56925921746686,25.5,2022,0,19.049999237060547,8.100000381469727,-76.3499984741211,2779096485
0.48068905792236327,1.273670908355713,9.479106113433838,1.1416403262715782,0.2501301865001825,-2.5932093578804873,25.399999618530273,2023,0,19.049999237060547,8.100000381469727,-76.3499984741211,2779096485
0.42706057815551757,1.420628215789795,8.9958067527771,1.1224111714898903,0.23196787407014052,-2.6165316380977353,25.299999237060547,2024,0,19.049999237060547,8.100000381469727,-76.3499984741211,2779096485
0.30658828811645505,1.4462282035827636,8.949201387023926,1.0864475980342099,0.20883322020830186,-2.643581425024902,25.299999237060547,2025,0,18.899999618530273,8.100000381469727,-75.1500015258789,2779096485
0.4467604309082031,1.4766400772094725,8.821221336364745,1.047911484220122,0.18593295115239028,-2.6742453678688696,25.5,2026,0,18.899999618530273,8.100000381469727,-75.1500015258789,2779096485
0.7134919563293457,1.6670981185913085,8.492998235321044,0.9997262717897973,0.15078237419289672,-2.7099941706999164,25.700000762939453,2027,0,18.899999618530273,8.100000381469727,-75.1500015258789,2779096485
0.7051288116455078,1.7632383750915526,8.23245178604126,0.9530646072033178,0.11636391352784012,-2.7443924978672705,25.700000762939453,2028,0,18.899999618530273,8.100000381469727,-75.1500015258789,2779096485
0.579912899017334,1.6840891616821287,8.28109686203003,0.8994629912061854,0.07367592494494873,-2.7749341150653084,25.600000381469727,2029,0,19.5,7.949999809265137,-75.44999694824219,2779096485
0.42281726608276365,1.6621915390014648,8.267432997894288,0.8384100968726194,0.028104605106573487,-2.8059830378159094,25.5,2030,0,19.5,7.949999809265137,-75.44999694824219,2779096485
0.6356558944702149,1.7078815940856933,8.056859468078613,0.7866355558445852,-0.019144366391065218,-2.840227867036989,25.5,2031,0,19.5,7.949999809265137,-75.44999694824219,2779096485
0.7476025688171386,1.7001197341918945,7.994722681427001,0.7347319114256942,-0.0792874916129988,-2.8739742390581666,25.600000381469727,2032,0,19.5,7.949999809265137,-75.44999694824219,2779096485
0.49435987548828125,1.6090707717895507,8.006071240234375,0.6865896291518465,-0.14170518941682403,-2.90238318355412,25.600000381469727,2033,0,18.899999618530273,7.949999809265137,-75.9000015258789,2779096485
0.3388861114501953,1.4563418556213379,8.054270399475097,0.6392971549181002,-0.20176760088457474,-2.92491746104184,25.600000381469727,2034,0,18.899999618530273,7.949999809265137,-75.9000015258789,2779096485
0.4096598434448242,1.369004305267334,8.035467838287353,0.5975233096889019,-0.2706462938960988,-2.950156484861473,25.600000381469727,2035,0,18.899999618530273,7.949999809265137,-75.9000015258789,2779096485
0.32188886260986327,1.2332836288452147,8.0140739654541,0.5621148255533147,-0.3435427648585597,-2.970694736441701,25.5,2036,0,18.899999618530273,7.949999809265137,-75.9000015258789,2779096485
0.11038028335571289,1.122963907623291,8.056788737487793,0.5334504839105777,-0.4199046874814763,-2.9817364552455916,25.5,2037,0,18.450000762939453,7.800000190734863,-75.5999984741211,2779096485
0.04648820419311523,0.9894650390624999,8.126265692138672,0.5105589566808842,-0.501356044070613,-2.990697672672794,25.5,2038,0,18.450000762939453,7.800000190734863,-75.5999984741211,2779096485
-0.011307099914550782,0.9158473167419433,8.122662394714355,0.48892687826945036,-0.5884566910043814,-2.9943916102374026,25.5,2039,0,18.450000762939453,7.800000190734863,-75.5999984741211,2779096485
-0.1572547019958496,0.8984636291503906,7.952610689544677,0.47155080422472656,-0.6779606543841539,-2.9909381494596725,25.5,2040,0,18.450000762939453,7.800000190734863,-75.5999984741211,2779096485
-0.2017841323852539,0.8438165466308594,7.8606380798339845,0.4456260097712082,-0.7687156975985179,-2.9859112132259047,25.5,2041,0,17.850000381469727,6.449999809265137,-76.05000305175781,2779096485
-0.21160611419677733,0.8671453048706055,7.735741090393066,0.41334166657311766,-0.8631580803959353,-2.9813019738325366,25.5,2042,0,17.850000381469727,6.449999809265137,-76.05000305175781,2779096485
-0.3106872604370117,0.9117766815185546,7.560805684661865,0.37241681711989383,-0.9569840213000685,-2.977027080995925,25.5,2043,0,17.850000381469727,6.449999809265137,-76.05000305175781,2779096485
-0.39330705795288085,0.860873161315918,7.535926049804687,0.326587423657858,-1.0441090161839357,-2.975294115481201,25.5,2044,0,17.850000381469727,6.449999809265137,-76.05000305175781,2779096485
-0.36661403579711915,0.7657852653503417,7.43901160736084,0.27563114552703016,-1.1392026483898456,-2.9712515634743935,25.5,2045,0,18.0,6.75,-76.19999694824219,2779096485
-0.3857604927062988,0.7012570220947265,7.3589486907958985,0.22335646284971633,-1.230891515718223,-2.967488037510979,25.5,2046,0,18.0,6.75,-76.19999694824219,2779096485
-0.36519299392700194,0.5831420570373534,7.434009586334228,0.17273604261955308,-1.3221646702611987,-2.957121450012492,25.5,2047,0,18.0,6.75,-76.19999694824219,2779096485
-0.28267918014526366,0.4562336196899414,7.554915718078613,0.12376206845879471,-1.4095658016586956,-2.945144249276821,25.5,2048,0,16.950000762939453,5.099999904632568,-76.5,2779096485
-0.20716567611694336,0.35848199920654295,7.682404579925537,0.07658774536599793,-1.4854739682403002,-2.931945942584421,25.5,2049,0,16.950000762939453,5.099999904632568,-76.5,2779096485
-0.0464734748840332,0.20954494552612304,7.893931477355957,0.0308736201730513,-1.5532978031250013,-2.9175133805775006,25.5,2050,0,16.950000762939453,5.099999904632568,-76.5,2779096485
0.0706264762878418,0.09156987152099609,8.054470067596435,-0.014528216094716034,-1.6063955423894505,-2.9023188082931126,25.600000381469727,2051,0,16.950000762939453,5.099999904632568,-76.5,2779096485
0.15086483612060547,-0.021671673583984374,8.092619351959229,-0.06333366542285232,-1.6543345588944949,-2.8845955445973637,25.600000381469727,2052,0,15.899999618530273,5.699999809265137,-77.0999984741211,2779096485
0.2391716049194336,-0.11822311706542968,8.309817070770263,-0.11515565732328277,-1.6916461046424607,-2.8675323320574497,25.600000381469727,2053,0,15.899999618530273,5.699999809265137,-77.0999984741211,2779096485
0.32740816650390625,-0.24514781646728515,8.806700293731689,-0.15968754539534333,-1.7152026764549984,-2.8475545560405826,25.600000381469727,2054,0,15.899999618530273,5.699999809265137,-77.0999984741211,2779096485
0.31077387924194333,-0.3636119857788086,9.030931033325196,-0.19817460378248902,-1.7251728324542432,-2.8282786294925715,25.5,2055,0,15.899999618530273,5.699999809265137,-77.0999984741211,2779096485
0.3412743530273437,-0.39949785385131836,9.018245957946776,-0.2438175826274031,-1.726377426812327,-2.806021160966652,25.5,2056,0,14.850000381469727,5.550000190734863,-78.0,2779096485
0.4055689460754394,-0.48059918670654295,9.34428927078247,-0.29096407568699983,-1.721002588531947,-2.779797300182676,25.5,2057,0,14.850000381469727,5.550000190734863,-78.0,2779096485
0.3847600959777832,-0.5073368827819824,9.679940130615234,-0.3367348929212619,-1.7086981185900678,-2.7509765577480962,25.5,2058,0,14.850000381469727,5.550000190734863,-78.0,2779096485
0.417748738861084,-0.49449542999267576,9.951389595794678,-0.37231521086710284,-1.6824315540183057,-2.7207919239759244,25.5,2059,0,14.850000381469727,5.550000190734863,-78.0,2779096485
0.47074767150878905,-0.5212849403381348,10.17875737915039,-0.4082006604927426,-1.6497668315243332,-2.6920769023779916,25.5,2060,0,14.25,4.050000190734863,-76.80000305175781,2779096485
0.5292978340148926,-0.4896138977050781,10.49944045715332,-0.44445467829491103,-1.6143143120204242,-2.6602008617196202,25.5,2061,0,14.25,4.050000190734863,-76.80000305175781,2779096485
0.4912844779968262,-0.44383591537475586,10.850133530426024,-0.4739108443033142,-1.5698819263039079,-2.631277987057938,25.5,2062,0,14.25,4.050000190734863,-76.80000305175781,2779096485
0.4989173629760742,-0.40387630920410156,10.975478717041016,-0.4831774730422278,-1.5053684672104528,-2.6060273185665186,25.5,2063,0,14.25,4.050000190734863,-76.80000305175781,2779096485
0.4988238655090332,-0.4535494087219238,11.362906649780273,-0.5010646143545283,-1.44724062255056,-2.5818108820194214,25.5,2064,0,13.350000381469727,3.450000047683716,-76.94999694824219,2779096485
0.4181342803955078,-0.4662989715576172,11.815240329742432,-0.5017972100179582,-1.3763575679373896,-2.557427205614919,25.5,2065,0,13.350000381469727,3.450000047683716,-76.94999694824219,2779096485
0.33212158279418946,-0.5777993927001953,11.992587454223633,-0.47804072136166487,-1.2944118154689854,-2.532352532122928,25.5,2066,0,13.350000381469727,3.450000047683716,-76.94999694824219,2779096485
0.32128316650390626,-0.5949930198669433,11.868487641906738,-0.47039790182304614,-1.2232326173446333,-2.5057352092643046,25.5,2067,0,13.350000381469727,3.450000047683716,-76.94999694824219,2779096485
0.2152400665283203,-0.46773649978637694,12.069764846801757,-0.44582883611843477,-1.150633787921457,-2.4829848761767344,25.5,2068,0,13.050000190734863,3.450000047683716,-77.4000015258789,2779096485
0.20973377227783202,-0.489394677734375,12.15365229949951,-0.41865992599652757,-1.0788079742888772,-2.4626859628820266,25.5,2069,0,13.050000190734863,3.450000047683716,-77.4000015258789,2779096485
0.18505836639404297,-0.41456646041870115,11.975800453186034,-0.38125447053126815,-1.0105521280730152,-2.4448548478207734,25.5,2070,0,13.050000190734863,3.450000047683716,-77.4000015258789,2779096485
0.13888538436889647,-0.5230831123352051,12.262409555053711,-0.36910120155923903,-0.9599542381855191,-2.4237045951683482,25.5,2071,0,13.050000190734863,3.450000047683716,-77.4000015258789,2779096485
0.12574542007446288,-0.3783239112854004,12.104678954315185,-0.3102264201135448,-0.8896454809416721,-2.4011559632424517,25.5,2072,0,11.399999618530273,3.450000047683716,-76.6500015258789,2779096485
0.2010115913391113,-0.4204557167053222,12.316499353790283,-0.2690052140962535,-0.8352091770014234,-2.379395547098969,25.5,2073,0,11.399999618530273,3.450000047683716,-76.6500015258789,2779096485
0.22961531143188477,-0.09972848815917969,11.115932249450683,-0.23991529931424652,-0.7857721323935043,-2.3703434426422896,25.5,2074,0,11.399999618530273,3.450000047683716,-76.6500015258789,2779096485
0.2050668617248535,-0.19965047607421874,11.879614775085448,-0.23022827728434753,-0.756273162728775,-2.362059393838711,25.5,2075,0,11.399999618530273,3.450000047683716,-76.6500015258789,2779096485
0.2338648666381836,-0.3097098175048828,11.62354917602539,-0.176533930018696,-0.7064065036346596,-2.3474801116304436,25.5,2076,0,10.949999809265137,2.25,-77.8499984741211,2779096485
0.2555347457885742,-0.2757804428100586,11.623491679382324,-0.14749076037140138,-0.6727593609950164,-2.328140056163824,25.5,2077,0,10.949999809265137,2.25,-77.8499984741211,2779096485
0.20468169403076172,-0.21394736404418946,11.344809114074707,-0.11322238880644744,-0.6351735895514897,-2.3103713655980935,25.5,2078,0,10.949999809265137,2.25,-77.8499984741211,2779096485
0.254484740447998,-0.1917507438659668,11.288243221282958,-0.07947557736369308,-0.5984746241132541,-2.2913300302509927,25.5,2079,0,10.949999809265137,2.25,-77.8499984741211,2779096485
0.37276733551025387,-0.1641403175354004,11.2852837890625,-0.0531155558120195,-0.5666371726588132,-2.2767736112805266,25.600000381469727,2080,0,9.899999618530273,1.9500000476837158,-77.0999984741211,2779096485
0.3666091011047363,-0.09669825057983399,10.997991568756103,-0.026420515255419007,-0.5316661659924868,-2.2618671197871754,25.600000381469727,2081,0,9.899999618530273,1.9500000476837158,-77.0999984741211,2779096485
0.4220034530639648,-0.013073944091796874,10.83927268371582,-0.0042632348490199284,-0.49979208941540637,-2.2499221233267646,25.600000381469727,2082,0,9.899999618530273,1.9500000476837158,-77.0999984741211,2779096485
0.5524202323913574,-0.009358195495605468,10.763495435333251,0.006121249091869507,-0.4732055593566754,-2.2446184380523198,25.600000381469727,2083,0,9.899999618530273,1.9500000476837158,-77.0999984741211,2779096485
0.5582818244934081,0.08670774154663086,10.485979663085937,0.013024082695084229,-0.45198402719816405,-2.2358428296360153,25.5,2084,0,9.300000190734863,1.7999999523162842,-77.4000015258789,2779096485
0.5097556671142578,0.18563247299194335,10.266258933258056,0.01689506054984207,-0.4330036449500935,-2.22976542283329,25.5,2085,0,9.300000190734863,1.7999999523162842,-77.4000015258789,2779096485
0.5268397216796875,0.22504537506103514,10.270495254516602,0.015466028292434387,-0.4226123166852496,-2.2204701251654386,25.5,2086,0,9.300000190734863,1.7999999523162842,-77.4000015258789,2779096485
0.5086636047363281,0.35477705459594727,10.070881190490722,0.016412176184307403,-0.419033793863589,-2.2109780598417994,25.5,2087,0,9.300000190734863,1.7999999523162842,-77.4000015258789,2779096485
0.4553161407470703,0.369679825592041,10.622466151428222,0.025032149467577362,-0.41398924747723376,-2.1987107077073578,25.5,2088,0,9.899999618530273,1.5,-78.1500015258789,2779096485
0.2811842674255371,0.3575090797424316,10.725285327148438,0.06354237069814483,-0.39608540814501314,-2.175363999645179,25.5,2089,0,9.899999618530273,1.5,-78.1500015258789,2779096485
0.2777316650390625,0.5221058189392089,10.90287675628662,0.09428851866649551,-0.3789948116513785,-2.1518063425945044,25.5,2090,0,9.899999618530273,1.5,-78.1500015258789,2779096485
0.377587109375,0.707625579071045,10.766174487304687,0.12514123302513336,-0.3676244854028412,-2.136559725484871,25.5,2091,0,9.899999618530273,1.5,-78.1500015258789,2779096485
0.45380242385864256,0.8899483688354491,10.682045907592773,0.15652066738054735,-0.3567407786032417,-2.1259313625688336,25.5,2092,0,10.050000190734863,1.350000023841858,-76.94999694824219,2779096485
0.5948641571044921,0.983931005859375,10.791268856048584,0.1773735248360872,-0.34775637835890977,-2.1212361163886526,25.600000381469727,2093,0,10.050000190734863,1.350000023841858,-76.94999694824219,2779096485
0.11016495132446288,1.0404464302062988,10.935760798645019,0.1906629981898767,-0.32636796586973815,-2.117916452823169,25.600000381469727,2094,0,10.050000190734863,1.350000023841858,-76.94999694824219,2779096485
0.20500540237426756,1.0894066909790039,11.04415135421753,0.20464005978498306,-0.30079141967377077,-2.1179642898539206,25.600000381469727,2095,0,9.449999809265137,1.7999999523162842,-79.05000305175781,2779096485
0.3985808982849121,1.2122944007873535,11.0053614944458,0.2151364697278166,-0.2782927952548993,-2.1209774368958483,25.600000381469727,2096,0,9.449999809265137,1.7999999523162842,-79.05000305175781,2779096485
0.15032018814086914,1.2012666343688965,11.106448069763184,0.21373417560756958,-0.2496594261754271,-2.1258723802089965,25.600000381469727,2097,0,9.449999809265137,1.7999999523162842,-79.05000305175781,2779096485
0.18580002822875977,1.0980661041259765,11.236593067169188,0.21867783479462327,-0.21188080858079025,-2.122309616642978,25.600000381469727,2098,0,9.449999809265137,1.7999999523162842,-79.05000305175781,2779096485
0.3346611923217773,1.0719775817871093,11.21883034286499,0.2246779766367537,-0.18239904293658463,-2.1209857126688787,25.600000381469727,2099,0,8.550000190734863,0.0,-79.05000305175781,2779096485
0.44756564559936524,1.0812775329589843,11.165122870635987,0.23294851655579574,-0.15370781668282807,-2.1179464533326424,25.5,2100,0,8.550000190734863,0.0,-79.05000305175781,2779096485
0.9563181121826172,1.1516163764953613,10.97929372024536,0.2485214041862352,-0.13760058575704454,-2.1136201215399293,25.5,2101,0,8.550000190734863,0.0,-79.05000305175781,2779096485
1.2489283233642579,1.327680593109131,10.529642531585694,0.27863895293100893,-0.14513794411722092,-2.115419020264888,25.5,2102,0,8.550000190734863,0.0,-79.05000305175781,2779096485
1.4976321838378905,1.3081322204589843,10.513535620880127,0.28372369307584,-0.15591506455282517,-2.1358637948914967,25.399999618530273,2103,0,9.0,1.2000000476837158,-77.69999694824219,2779096485
1.6035655616760254,1.2036806709289551,10.452643423461915,0.2836544508879738,-0.15755244255878068,-2.1707201058683645,25.399999618530273,2104,0,9.0,1.2000000476837158,-77.69999694824219,2779096485
1.7115145370483398,1.049301025390625,10.603684562683105,0.2839449418397806,-0.16056758697151216,-2.2105530659400623,25.5,2105,0,9.0,1.2000000476837158,-77.69999694824219,2779096485
1.6905119628906249,0.9104755676269531,10.721032108306884,0.29085588476845886,-0.1560002324439006,-2.2379392966633294,25.5,2106,0,9.0,1.2000000476837158,-77.69999694824219,2779096485
1.6524848121643065,0.9194739044189453,10.680119246673584,0.3034064507670784,-0.14621166408233474,-2.2701630729207447,25.5,2107,0,7.949999809265137,0.30000001192092896,-78.44999694824219,2779096485
1.5602656173706053,0.9470906860351562,10.662900310516356,0.3210978231089926,-0.13516263490130204,-2.291724071563173,25.5,2108,0,7.949999809265137,0.30000001192092896,-78.44999694824219,2779096485
1.4856464141845702,0.9714235046386719,10.691936115264893,0.33627276789628174,-0.12475817059447158,-2.3074785268575835,25.5,2109,0,7.949999809265137,0.30000001192092896,-78.44999694824219,2779096485
1.374420915222168,1.0310120834350585,10.679882568359375,0.3545130310508946,-0.11135960084737671,-2.323797179482953,25.5,2110,0,7.949999809265137,0.30000001192092896,-78.44999694824219,2779096485
1.2936913291931151,1.0877026893615722,10.634493828582764,0.3708034741426111,-0.10013205997970276,-2.3345783212917754,25.5,2111,0,7.349999904632568,0.0,-78.44999694824219,2779096485
