accelX,accelY,accelZ,gyroX,gyroY,gyroZ,temp,dataCNT,pad,magX,magY,magZ,pad
0.0,0.0,0.0,0.0,0.0,0.0,0.0,0,0,-17.700000762939453,31.649999618530273,-67.05000305175781,2779096485
-0.112415470123291,1.9202708290100097,9.687772422027587,-0.01788557004726822,0.013315399226823272,-0.049825067176076966,19.200000762939453,1485,0,-17.700000762939453,31.649999618530273,-67.05000305175781,2779096485
-0.10908148727416991,1.909566098022461,9.696834685516357,-0.018119801721433716,0.016102650288740084,-0.04902370203587113,19.100000381469727,1486,0,-16.799999237060547,32.25,-67.19999694824219,2779096485
-0.1036549705505371,1.8986280532836914,9.709306858825684,-0.01695558088519821,0.018608405225370026,-0.04985584666016403,18.899999618530273,1487,0,-16.799999237060547,32.25,-67.19999694824219,2779096485
-0.1087535545349121,1.8854216201782226,9.716282158660889,-0.017057972770505372,0.024075229089169006,-0.05068952260207321,18.899999618530273,1488,0,-16.799999237060547,32.25,-67.19999694824219,2779096485
-0.11506207275390624,1.8689153358459472,9.726479401397706,-0.01698384368207245,0.028573341428914337,-0.04934750913268585,18.899999618530273,1489,0,-16.799999237060547,32.25,-67.19999694824219,2779096485
-0.12502839431762694,1.8641984054565428,9.741481838226319,-0.017176210464189604,0.03502486909900299,-0.05045595006027298,18.899999618530273,1490,0,-18.149999618530273,31.950000762939453,-67.3499984741211,2779096485
-0.13187135467529296,1.8534519912719727,9.768355387878417,-0.01719949314985962,0.04328108786938156,-0.050394324513072054,18.899999618530273,1491,0,-18.149999618530273,31.950000762939453,-67.3499984741211,2779096485
-0.13480424423217774,1.8481529167175292,9.793227770233154,-0.016333446485122985,0.05154548920215317,-0.05268847798674393,19.0,1492,0,-18.149999618530273,31.950000762939453,-67.3499984741211,2779096485
-0.13224560623168946,1.8457396278381346,9.822912599182128,-0.01413796978706314,0.05917987317807709,-0.048917255487832184,19.100000381469727,1493,0,-16.649999618530273,32.25,-67.3499984741211,2779096485
-0.13181015701293944,1.8430319770812988,9.86131583328247,-0.00980454732799652,0.07058168464838546,-0.04879127465333176,19.100000381469727,1494,0,-16.649999618530273,32.25,-67.3499984741211,2779096485
-0.14351326599121092,1.836740842437744,9.883297270965576,-0.004423057802839966,0.07992085789489425,-0.04757569475582703,19.100000381469727,1495,0,-16.649999618530273,32.25,-67.3499984741211,2779096485
-0.1587021743774414,1.8236380004882813,9.888697880554199,0.0029551500516870116,0.08969589739821549,-0.04600731925324127,19.0,1496,0,-16.649999618530273,32.25,-67.3499984741211,2779096485
-0.1659325454711914,1.8149634468078613,9.883161566925049,0.009240096996735992,0.09745154841354278,-0.04641677361012436,19.0,1497,0,-17.549999237060547,31.350000381469727,-67.80000305175781,2779096485
-0.1796195129394531,1.8119561256408692,9.852631671905517,0.018122191908495636,0.10521738601996963,-0.04167642013929016,19.0,1498,0,-17.549999237060547,31.350000381469727,-67.80000305175781,2779096485
-0.18632116165161133,1.811920199584961,9.812985904693603,0.020953325206972656,0.11380679287203826,-0.03972682644508484,18.899999618530273,1499,0,-17.549999237060547,31.350000381469727,-67.80000305175781,2779096485
-0.1985361328125,1.8169568382263184,9.749696306610106,0.02669866911356079,0.11966169922511932,-0.03777553498569626,18.899999618530273,1500,0,-17.549999237060547,31.350000381469727,-67.80000305175781,2779096485
-0.20653777389526368,1.819332967376709,9.684983311462402,0.03262881642482224,0.12192593874205246,-0.03599334093856018,18.899999618530273,1501,0,-17.100000381469727,32.25,-68.4000015258789,2779096485
-0.21391917648315428,1.8235007637023926,9.613415579986572,0.035415415012276456,0.12385549214919266,-0.030939699857144776,18.899999618530273,1502,0,-17.100000381469727,32.25,-68.4000015258789,2779096485
-0.22284162368774413,1.8248977302551268,9.534495530700683,0.036989862522105864,0.12261515816952576,-0.029220602753701783,18.899999618530273,1503,0,-17.100000381469727,32.25,-68.4000015258789,2779096485
-0.23063335342407226,1.8316448753356933,9.474295349121093,0.03594959851795624,0.12000884892872818,-0.02956998951261093,18.899999618530273,1504,0,-17.100000381469727,32.25,-68.4000015258789,2779096485
-0.23778379745483397,1.8412195617675782,9.422305112457275,0.034418533901986084,0.11416442211446456,-0.02546767617135315,19.0,1505,0,-17.100000381469727,31.5,-66.9000015258789,2779096485
-0.24222438507080077,1.844924543762207,9.36456700592041,0.03332522638718933,0.10796349124332749,-0.021184540851224367,19.100000381469727,1506,0,-17.100000381469727,31.5,-66.9000015258789,2779096485
-0.2524885078430176,1.8414270805358885,9.307579645538329,0.03134836858151169,0.09649699824848831,-0.018602339876029054,19.100000381469727,1507,0,-17.100000381469727,31.5,-66.9000015258789,2779096485
-0.2597610107421875,1.832886025238037,9.267818249511718,0.028931150434712984,0.08620721631531128,-0.014755230602377014,19.100000381469727,1508,0,-17.100000381469727,31.5,-66.9000015258789,2779096485
-0.2730325294494629,1.8352584159851073,9.248878787994384,0.02355066625286102,0.07419902304266723,-0.012159307689759369,19.100000381469727,1509,0,-17.549999237060547,32.54999923706055,-67.3499984741211,2779096485
-0.2682204940795898,1.8323662002563477,9.235715309143066,0.020873563532872924,0.06293709410765397,-0.006497120987637482,19.100000381469727,1510,0,-17.549999237060547,32.54999923706055,-67.3499984741211,2779096485
-0.2601584403991699,1.8356531539916991,9.221958545684814,0.015137760400824433,0.0511047094131633,-0.0031767516844696045,19.100000381469727,1511,0,-17.549999237060547,32.54999923706055,-67.3499984741211,2779096485
-0.2544845909118652,1.845648747253418,9.210095358276368,0.009562073170313873,0.03845643203482025,0.0024984978227093504,19.0,1512,0,-17.549999237060547,32.54999923706055,-67.3499984741211,2779096485
-0.24976885681152344,1.8548720985412597,9.200927783966064,0.005491138524384308,0.026451760792693634,0.005361469211799469,19.0,1513,0,-17.25,31.950000762939453,-67.94999694824219,2779096485
-0.23669951095581054,1.867867685699463,9.194198471069337,-0.0014565626849871826,0.012829858358119508,0.008330654122334748,19.0,1514,0,-17.25,31.950000762939453,-67.94999694824219,2779096485
-0.22950155181884765,1.8656840843200684,9.200971598052979,-0.006573427210246582,0.0007870306757369995,0.0067610535656559756,19.0,1515,0,-17.25,31.950000762939453,-67.94999694824219,2779096485
-0.22508653488159178,1.8644965431213378,9.204756656646728,-0.015271131507299042,-0.011660178041686859,0.010909186593153687,19.0,1516,0,-17.25,31.950000762939453,-67.94999694824219,2779096485
-0.22722056503295898,1.8671991844177245,9.225311071014405,-0.023510845336935274,-0.03139503382139191,0.012727339972661438,19.0,1517,0,-17.100000381469727,31.049999237060547,-67.94999694824219,2779096485
-0.2207623237609863,1.8739831153869628,9.24696782836914,-0.030731334134888915,-0.04098982392547257,0.014415804065876312,19.0,1518,0,-17.100000381469727,31.049999237060547,-67.94999694824219,2779096485
-0.22583473892211914,1.8849057205200195,9.263232948303223,-0.038093030390770874,-0.051085448100711674,0.014026929286175384,19.0,1519,0,-17.100000381469727,31.049999237060547,-67.94999694824219,2779096485
-0.2339212417602539,1.8994276229858398,9.297684540557862,-0.04520687290360519,-0.05813307777139893,0.014350310277218628,19.100000381469727,1520,0,-17.100000381469727,31.799999237060547,-67.05000305175781,2779096485
-0.24587041244506835,1.9139683296203613,9.322758235931396,-0.05136249008910599,-0.06652148919947784,0.016304244923970947,19.100000381469727,1521,0,-17.100000381469727,31.799999237060547,-67.05000305175781,2779096485
-0.25974026260375976,1.9245816192626952,9.357385794830321,-0.06059970421398178,-0.07281247486225709,0.016267906091146547,19.100000381469727,1522,0,-17.100000381469727,31.799999237060547,-67.05000305175781,2779096485
-0.2802303764343262,1.9277878234863282,9.39813614807129,-0.06678839785999405,-0.07683595863579025,0.01874806139197403,19.100000381469727,1523,0,-17.100000381469727,31.799999237060547,-67.05000305175781,2779096485
-0.29761372756958004,1.9167194206237792,9.456180915832519,-0.0753636167214528,-0.0793993976412349,0.019146789867640533,19.0,1524,0,-17.399999618530273,32.25,-66.75,2779096485
-0.30519210662841795,1.9158230636596678,9.498299973297119,-0.08139047672703582,-0.07884864927368866,0.021338704587766877,19.0,1525,0,-17.399999618530273,32.25,-66.75,2779096485
-0.3149618255615234,1.9126909545898436,9.537859271240235,-0.08778153732498978,-0.07850005480519837,0.02407445011455551,19.0,1526,0,-17.399999618530273,32.25,-66.75,2779096485
-0.30997210388183594,1.9001760513305663,9.586024560546875,-0.09309940393214157,-0.07819155422664367,0.02726158812720505,19.100000381469727,1527,0,-17.399999618530273,32.25,-66.75,2779096485
-0.29720478363037106,1.9003483917236328,9.62530411376953,-0.09737128073883941,-0.07880500006372224,0.028456035841605224,19.100000381469727,1528,0,-17.850000381469727,32.400001525878906,-67.5,2779096485
-0.28676559143066405,1.8869688331604004,9.680019646453857,-0.10035145118879578,-0.07544153415651031,0.033977381270446166,19.100000381469727,1529,0,-17.850000381469727,32.400001525878906,-67.5,2779096485
-0.258860205078125,1.8800234405517577,9.742366456604003,-0.1012300679737912,-0.07372306289591919,0.035694614161138914,19.100000381469727,1530,0,-17.850000381469727,32.400001525878906,-67.5,2779096485
-0.22570228729248046,1.8770503631591797,9.78936166305542,-0.1022883815521048,-0.07012492589296494,0.03686264331770706,19.100000381469727,1531,0,-17.850000381469727,32.400001525878906,-67.5,2779096485
-0.19827713623046875,1.8656325691223143,9.858071198272706,-0.09644348202675095,-0.06883419824791732,0.04027823394499634,19.100000381469727,1532,0,-17.549999237060547,32.25,-68.25,2779096485
-0.1537482292175293,1.8617915840148924,9.922323696899413,-0.09164466551248855,-0.06413610248538956,0.04133239964994064,19.200000762939453,1533,0,-17.549999237060547,32.25,-68.25,2779096485
-0.11725404815673827,1.8585336029052735,9.98445947418213,-0.08631494118066467,-0.05963665856510834,0.03894544832872269,19.200000762939453,1534,0,-17.549999237060547,32.25,-68.25,2779096485
-0.07195469360351563,1.8521456809997559,10.036989498901367,-0.07646093895156525,-0.055658408582379304,0.04134174734530258,19.200000762939453,1535,0,-17.549999237060547,32.25,-68.25,2779096485
-0.03760302886962891,1.8514828247070312,10.076268753051757,-0.06677285165723755,-0.052420916851765136,0.039939093698310855,19.200000762939453,1536,0,-17.100000381469727,32.400001525878906,-68.4000015258789,2779096485
-0.005792805480957031,1.8401891456604003,10.116681005096435,-0.05605107170870483,-0.04760138094436432,0.0366250960080072,19.0,1537,0,-17.100000381469727,32.400001525878906,-68.4000015258789,2779096485
0.014062602233886718,1.8350838325500487,10.119066069030762,-0.044459210406411744,-0.03998335543532379,0.034113535380240784,19.0,1538,0,-17.100000381469727,32.400001525878906,-68.4000015258789,2779096485
0.029446244049072264,1.8382567276000976,10.12080061340332,-0.033649239878987124,-0.035519624505015106,0.03116263307046326,19.0,1539,0,-17.100000381469727,32.400001525878906,-68.4000015258789,2779096485
0.04375703887939453,1.8531429748535155,10.114684884643554,-0.023407634529598542,-0.030031974721634828,0.030560459062621004,18.799999237060547,1540,0,-17.700000762939453,31.5,-67.19999694824219,2779096485
0.05234213256835937,1.8624865905761718,10.086461322784423,-0.013733375699136047,-0.023411176533824005,0.027063155995746917,18.799999237060547,1541,0,-17.700000762939453,31.5,-67.19999694824219,2779096485
0.06136491851806641,1.8782306518554688,10.065882272338866,-0.006412645518440704,-0.018478636044244996,0.025843401593262177,18.799999237060547,1542,0,-17.700000762939453,31.5,-67.19999694824219,2779096485
0.06725694122314453,1.894316552734375,10.035582064819335,-0.0015682423445321655,-0.01139068611493103,0.022909876409477996,19.100000381469727,1543,0,-17.700000762939453,31.5,-67.19999694824219,2779096485
0.06204388732910156,1.899933242034912,10.022379108428956,0.004601955647836609,-0.004509417458495026,0.020962080348996125,19.100000381469727,1544,0,-17.700000762939453,33.150001525878906,-67.6500015258789,2779096485
0.04794651794433594,1.9056119140624999,10.016357774353027,0.009566267649001923,6.189186330810547e-05,0.019751780168316194,19.100000381469727,1545,0,-17.700000762939453,33.150001525878906,-67.6500015258789,2779096485
0.042974478912353516,1.916197801208496,9.987081478118895,0.012504440048856353,0.003870185564338989,0.0177345821303038,19.100000381469727,1546,0,-17.700000762939453,33.150001525878906,-67.6500015258789,2779096485
0.031120487976074217,1.917557122039795,9.969024915313721,0.017901522382088166,0.007898989002113038,0.01706746693972626,19.0,1547,0,-17.700000762939453,33.150001525878906,-67.6500015258789,2779096485
0.03262781219482422,1.933279500579834,9.928764180755614,0.02269802860412079,0.009794087762887116,0.017768444223331452,19.0,1548,0,-17.700000762939453,31.350000381469727,-67.80000305175781,2779096485
0.03910930633544922,1.9419598487854004,9.88303296585083,0.026652449953160094,0.011645410813543854,0.01756981235479294,19.200000762939453,1549,0,-17.700000762939453,31.350000381469727,-67.80000305175781,2779096485
0.044263592529296875,1.9570419136047363,9.829465908050537,0.03019902149986206,0.008761240662322388,0.01666628169797104,19.299999237060547,1550,0,-17.700000762939453,31.350000381469727,-67.80000305175781,2779096485
0.04917839660644531,1.9721323524475096,9.76797668762207,0.033253400933083495,0.009386264592160493,0.015929165318621825,19.299999237060547,1551,0,-17.549999237060547,31.649999618530273,-67.5,2779096485
0.04426381683349609,1.9812687110900877,9.718542771148682,0.03246366049095596,0.007298499443648682,0.015304574152457886,19.299999237060547,1552,0,-17.549999237060547,31.649999618530273,-67.5,2779096485
0.041773217773437496,1.9881812431335448,9.674914482879638,0.030804677590805664,0.0025668944569352723,0.010889239516726074,19.200000762939453,1553,0,-17.549999237060547,31.649999618530273,-67.5,2779096485
0.04026462249755859,1.9915569091796874,9.63009977493286,0.027410638594489747,-0.0009609683832374573,0.007925680533954926,19.200000762939453,1554,0,-17.549999237060547,31.649999618530273,-67.5,2779096485
0.03855467681884765,1.9987918411254881,9.604773064422607,0.020693407344269867,-0.004663934063879547,0.0069656642308006285,19.200000762939453,1555,0,-17.700000762939453,31.950000762939453,-68.0999984741211,2779096485
0.034900275421142574,2.006143448638916,9.57741636352539,0.017316785421363372,-0.00679424986841568,0.0028143087784060668,19.0,1556,0,-17.700000762939453,31.950000762939453,-68.0999984741211,2779096485
0.03689512481689453,2.01046040725708,9.563866632843018,0.01075172719478485,-0.01171759579439438,0.0009503423705610657,19.0,1557,0,-17.700000762939453,31.950000762939453,-68.0999984741211,2779096485
0.036726485443115235,2.005860526275635,9.5633935005188,0.005438534435314026,-0.015790301442436677,-0.0025478528552720643,19.0,1558,0,-17.700000762939453,31.950000762939453,-68.0999984741211,2779096485
0.038116835021972655,1.9980154495239257,9.573356195831298,0.0018641395133146667,-0.01725678440241623,-0.005789632275211792,19.0,1559,0,-18.0,31.950000762939453,-67.80000305175781,2779096485
0.0399118293762207,1.9918764678955077,9.575127077484131,-0.002666569917949219,-0.020161440920182343,-0.009204111032753601,19.0,1560,0,-18.0,31.950000762939453,-67.80000305175781,2779096485
0.05360309600830078,1.973562777709961,9.601991841888427,-0.005356742100897064,-0.025068008931408845,-0.016148922712362214,19.0,1561,0,-18.0,31.950000762939453,-67.80000305175781,2779096485
0.11258575439453125,1.9070189743041992,9.686620582580566,-0.002676017481851349,-0.03211229633495102,-0.029529862333161926,19.200000762939453,1562,0,-18.0,31.950000762939453,-67.80000305175781,2779096485
0.1230419937133789,1.889880339050293,9.679206282043456,0.003558395981860657,-0.03773108016950562,-0.040123344497061765,19.200000762939453,1563,0,-16.950000762939453,31.049999237060547,-67.19999694824219,2779096485
0.15826579055786133,1.8943019355773925,9.711354120635987,0.004003936171266327,-0.03985969820885849,-0.047903663041816404,19.200000762939453,1564,0,-16.950000762939453,31.049999237060547,-67.19999694824219,2779096485
0.15365495605468749,1.9296679039001465,9.713666734313964,0.004945783058008423,-0.04114832195665939,-0.057139512296642915,19.100000381469727,1565,0,-16.950000762939453,31.049999237060547,-67.19999694824219,2779096485
0.13342753982543945,1.9774615211486817,9.667778992462157,0.004303654976186829,-0.03855465607305008,-0.06330522286260575,19.0,1566,0,-16.950000762939453,31.049999237060547,-67.19999694824219,2779096485
0.12763039779663085,2.011871131134033,9.657067158508301,0.0014228603816238404,-0.03805998056187012,-0.06818597818514405,19.0,1567,0,-17.100000381469727,31.649999618530273,-67.3499984741211,2779096485
0.10788056259155274,2.0211065948486326,9.633544676208496,-0.0004899217686668396,-0.03337113262616409,-0.06964259413335266,19.0,1568,0,-17.100000381469727,31.649999618530273,-67.3499984741211,2779096485
0.07718898162841796,2.0134492980957033,9.605309413146973,-0.004225591067270355,-0.028756946411105346,-0.07127278160441437,19.0,1569,0,-17.100000381469727,31.649999618530273,-67.3499984741211,2779096485
0.039241944885253906,1.981824761199951,9.603906689453124,-0.010354789694939118,-0.02248690651015564,-0.07190725975605729,19.0,1570,0,-17.100000381469727,31.649999618530273,-67.3499984741211,2779096485
-0.0005414329528808594,1.9483538269042968,9.616819770050048,-0.016665569302384338,-0.014214116220007934,-0.06910770488998887,19.0,1571,0,-18.450000762939453,31.049999237060547,-67.5,2779096485
-0.0438332649230957,1.921477136993408,9.629989678955077,-0.02236706426192566,-0.005479180931172028,-0.06477275111330597,19.0,1572,0,-18.450000762939453,31.049999237060547,-67.5,2779096485
-0.06575380401611328,1.9020097755432128,9.663385770416259,-0.026319022186973573,0.002005739787501068,-0.05989627016428787,19.0,1573,0,-18.450000762939453,31.049999237060547,-67.5,2779096485
-0.06817322387695313,1.8961885208129883,9.689564724731445,-0.03071396366679825,0.01224313068449356,-0.0584683364608223,19.0,1574,0,-18.450000762939453,31.049999237060547,-67.5,2779096485
-0.05326417236328125,1.8895146110534666,9.716140323638916,-0.03361377323141373,0.01837019212540222,-0.055129877636074374,19.0,1575,0,-18.149999618530273,31.950000762939453,-68.25,2779096485
-0.023185614776611328,1.8870892845153808,9.74181051864624,-0.03248675009744827,0.0231308921468248,-0.05578384346886001,19.0,1576,0,-18.149999618530273,31.950000762939453,-68.25,2779096485
-0.0037077857971191406,1.894913052368164,9.774014171600342,-0.032647971210830996,0.025932857173663178,-0.05769265750915375,19.0,1577,0,-18.149999618530273,31.950000762939453,-68.25,2779096485
0.026079512786865232,1.8960352836608887,9.788980906677246,-0.02942719747384491,0.030193861625285492,-0.06360376987665467,19.0,1578,0,-18.149999618530273,31.950000762939453,-68.25,2779096485
0.03847243194580078,1.897313368988037,9.8025069732666,-0.02794297786112732,0.03036566214602585,-0.06469598549541199,19.0,1579,0,-17.850000381469727,31.200000762939453,-67.3499984741211,2779096485
0.04646827850341797,1.87164302444458,9.821437574768066,-0.025846011491112517,0.030759497063222962,-0.07149498910634079,19.0,1580,0,-17.850000381469727,31.200000762939453,-67.3499984741211,2779096485
0.03313081436157227,1.8485830200195312,9.861292804718017,-0.02111561158478409,0.032843760154925385,-0.07396152233828614,19.100000381469727,1581,0,-17.850000381469727,31.200000762939453,-67.3499984741211,2779096485
0.02334012298583984,1.8236031959533692,9.898605247497558,-0.019466216064492187,0.03814257184460861,-0.07470972412559662,19.100000381469727,1582,0,-17.850000381469727,31.200000762939453,-67.3499984741211,2779096485
0.0018464721679687498,1.8110488151550292,9.925088919067383,-0.013192654133025054,0.042892332931928866,-0.07619681995227173,19.100000381469727,1583,0,-17.549999237060547,32.54999923706055,-67.5,2779096485
-0.009140919494628906,1.809736149597168,9.928113623809814,-0.007543190682923584,0.04663556560797623,-0.07668359253297119,19.100000381469727,1584,0,-17.549999237060547,32.54999923706055,-67.5,2779096485
-0.01663608169555664,1.80873070602417,9.92714836807251,0.0004607468391255188,0.05309122117772613,-0.07610119249608688,19.0,1585,0,-17.549999237060547,32.54999923706055,-67.5,2779096485
-0.021114015960693358,1.8149042304992675,9.927140106201172,0.0030481409784107972,0.06062542369203247,-0.07468891817972335,19.0,1586,0,-17.549999237060547,32.54999923706055,-67.5,2779096485
-0.027555733489990235,1.807959735107422,9.932795861816405,0.00622611771697342,0.07035753969677933,-0.07555116318203003,19.100000381469727,1587,0,-16.950000762939453,32.400001525878906,-67.3499984741211,2779096485
-0.031664612579345705,1.8016682640075683,9.937151400756836,0.009056325566977996,0.07909039106207658,-0.07468104188085357,19.299999237060547,1588,0,-16.950000762939453,32.400001525878906,-67.3499984741211,2779096485
-0.03322162017822265,1.806656191253662,9.925270082092284,0.012081123938594666,0.09021482099095399,-0.07536438238026093,19.299999237060547,1589,0,-16.950000762939453,32.400001525878906,-67.3499984741211,2779096485
-0.035725602722167966,1.8157865684509278,9.915140953063965,0.01448928067984665,0.10108390703626938,-0.07323845413359055,19.299999237060547,1590,0,-17.399999618530273,31.799999237060547,-68.69999694824219,2779096485
-0.04001504669189453,1.8144659774780272,9.906501727294922,0.016281142001673278,0.10875811858602173,-0.07426929054754608,19.200000762939453,1591,0,-17.399999618530273,31.799999237060547,-68.69999694824219,2779096485
-0.07143909301757813,1.8173991661071778,9.884491653442382,0.01992810140497589,0.11593797420392273,-0.07457879646940536,19.200000762939453,1592,0,-17.399999618530273,31.799999237060547,-68.69999694824219,2779096485
-0.10168875732421874,1.8173801750183105,9.845231203460694,0.021287751658561095,0.1214938408581566,-0.0713454193226471,19.200000762939453,1593,0,-17.399999618530273,31.799999237060547,-68.69999694824219,2779096485
-0.13830914688110352,1.816197232055664,9.797484091949462,0.022290544986430818,0.12690222165223541,-0.07290967358347428,19.100000381469727,1594,0,-17.549999237060547,31.649999618530273,-68.25,2779096485
-0.16726610870361328,1.8198154457092284,9.76144670639038,0.023330309647879487,0.12934951354543717,-0.07011521201295563,19.100000381469727,1595,0,-17.549999237060547,31.649999618530273,-68.25,2779096485
-0.19845998153686523,1.8226792869567872,9.725410442352295,0.02235842230424774,0.1330503620130272,-0.06740870799473511,19.100000381469727,1596,0,-17.549999237060547,31.649999618530273,-68.25,2779096485
-0.2151658592224121,1.8216411697387696,9.693539507293702,0.021461702681866913,0.13374060675751312,-0.06614234161559158,19.100000381469727,1597,0,-17.549999237060547,31.649999618530273,-68.25,2779096485
-0.23241773071289062,1.8230712585449218,9.677696266174316,0.019713730254503174,0.13222003499616578,-0.06423009209751526,19.0,1598,0,-17.399999618530273,31.799999237060547,-67.5,2779096485
-0.24655734405517576,1.8253229736328125,9.651181079864502,0.017707324676734162,0.1309137877799724,-0.059238975380162505,19.0,1599,0,-17.399999618530273,31.799999237060547,-67.5,2779096485
-0.25434372787475584,1.8221784530639649,9.63480451812744,0.019476056444652404,0.12843858595873842,-0.05832965900591217,19.100000381469727,1600,0,-17.399999618530273,31.799999237060547,-67.5,2779096485
-0.2590423400878906,1.8188987892150879,9.611348803710937,0.01835706939922104,0.12597550817828368,-0.05451360884825974,19.100000381469727,1601,0,-17.399999618530273,31.799999237060547,-67.5,2779096485
-0.2503081962585449,1.8084121940612792,9.596079108428954,0.01924470098444443,0.12052085496058274,-0.052324636921117704,19.100000381469727,1602,0,-17.399999618530273,31.950000762939453,-67.80000305175781,2779096485
-0.22432016220092774,1.7935925651550293,9.59039415588379,0.019880424163888397,0.11491486761497803,-0.04886584316334152,19.200000762939453,1603,0,-17.399999618530273,31.950000762939453,-67.80000305175781,2779096485
-0.17705074386596678,1.7725123069763182,9.600899629974364,0.023584561635402068,0.10722201393772324,-0.04957467011420578,19.200000762939453,1604,0,-17.399999618530273,31.950000762939453,-67.80000305175781,2779096485
-0.1585121139526367,1.7765329971313475,9.544476693725585,0.025976226751717072,0.09930729231157867,-0.054171732203573,19.200000762939453,1605,0,-17.399999618530273,31.950000762939453,-67.80000305175781,2779096485
-0.16653282089233398,1.795397989654541,9.463250984191895,0.026195937540138704,0.08736388708990829,-0.05738904383116577,19.200000762939453,1606,0,-17.549999237060547,32.099998474121094,-67.19999694824219,2779096485
-0.18852240829467773,1.8182084930419922,9.3933,0.027580734692144164,0.07544285907914353,-0.056993804096503294,19.0,1607,0,-17.549999237060547,32.099998474121094,-67.19999694824219,2779096485
-0.2057259422302246,1.8378196708679198,9.340927362060546,0.027098109984813996,0.06072999271151581,-0.0564877702033522,19.0,1608,0,-17.549999237060547,32.099998474121094,-67.19999694824219,2779096485
-0.21497026596069335,1.8516931098937988,9.291530642700195,0.02870703211471756,0.047537032314967496,-0.05689972793164276,19.0,1609,0,-17.549999237060547,32.099998474121094,-67.19999694824219,2779096485
-0.22045484008789062,1.8706509269714355,9.274259256744385,0.02302838707717209,0.03202473825681366,-0.055652616207048186,18.899999618530273,1610,0,-17.850000381469727,31.649999618530273,-67.80000305175781,2779096485
-0.24359839782714843,1.8958495223999023,9.248887648010253,0.019479485264532317,0.019016228396096648,-0.05378429553085083,18.799999237060547,1611,0,-17.850000381469727,31.649999618530273,-67.80000305175781,2779096485
-0.2649561950683594,1.9197942947387694,9.246858218383789,0.0108568754518013,0.010962203472190095,-0.05010454595685196,18.799999237060547,1612,0,-17.850000381469727,31.649999618530273,-67.80000305175781,2779096485
-0.2869551284790039,1.936310373687744,9.24928978805542,0.003945865944096222,0.00040800959200164793,-0.04424497241399262,19.0,1613,0,-17.850000381469727,31.649999618530273,-67.80000305175781,2779096485
-0.3209976272583008,1.9400684410095215,9.22889440536499,-0.0037873878866174315,-0.012340762169384917,-0.03448533929747162,19.0,1614,0,-17.399999618530273,32.400001525878906,-67.94999694824219,2779096485
-0.3202444137573242,1.9363324676513671,9.232851580047607,-0.013800773647960052,-0.022805240810967867,-0.029162599105558473,19.0,1615,0,-17.399999618530273,32.400001525878906,-67.94999694824219,2779096485
-0.31138241653442383,1.9310462158203123,9.244086154937744,-0.01874471246692627,-0.03154426405204895,-0.02413426471222763,19.0,1616,0,-17.399999618530273,32.400001525878906,-67.94999694824219,2779096485
-0.28483354721069337,1.9236249992370604,9.255050256347657,-0.025497363759400787,-0.04177723410166229,-0.019454764471883546,19.0,1617,0,-16.649999618530273,31.950000762939453,-67.3499984741211,2779096485
-0.2626156929016113,1.921393396759033,9.27661011428833,-0.031486659878066404,-0.05123854657282547,-0.014872948979652252,19.0,1618,0,-16.649999618530273,31.950000762939453,-67.3499984741211,2779096485
-0.23756072692871094,1.913887094116211,9.304640625,-0.03774664634597016,-0.06100195472016571,-0.012010237248766632,19.0,1619,0,-16.649999618530273,31.950000762939453,-67.3499984741211,2779096485
-0.20735573654174805,1.9075875854492186,9.347374014282225,-0.04445169363428665,-0.06712466189272201,-0.013685651852729798,19.0,1620,0,-16.649999618530273,31.950000762939453,-67.3499984741211,2779096485
-0.1800044189453125,1.9047606048583983,9.401189451599121,-0.04766259370159912,-0.07412463429602982,-0.013378296433435974,19.0,1621,0,-17.700000762939453,33.150001525878906,-67.80000305175781,2779096485
-0.1599974563598633,1.9059266128540038,9.436471417999268,-0.054173902679846495,-0.07984412556651367,-0.014148642405058288,19.100000381469727,1622,0,-17.700000762939453,33.150001525878906,-67.80000305175781,2779096485
-0.15238741302490233,1.908895278930664,9.474325032043456,-0.05808995453574417,-0.08261973861454681,-0.014034306242344207,19.100000381469727,1623,0,-17.700000762939453,33.150001525878906,-67.80000305175781,2779096485
-0.14086509323120117,1.907602725982666,9.52346522216797,-0.06192935395809342,-0.08351547286733109,-0.013384055519253693,19.100000381469727,1624,0,-17.700000762939453,33.150001525878906,-67.80000305175781,2779096485
-0.13978256378173828,1.9078599281311035,9.584325007629394,-0.06431766349145798,-0.08167981586167908,-0.013474949206633453,19.0,1625,0,-17.100000381469727,32.25,-67.3499984741211,2779096485
-0.13739039688110352,1.8949268096923828,9.63371862411499,-0.06556834385188873,-0.07687726426401352,-0.015209019933202514,18.899999618530273,1626,0,-17.100000381469727,32.25,-67.3499984741211,2779096485
-0.13795033493041992,1.8789324996948242,9.687848348999022,-0.06740672393973664,-0.06967230169510834,-0.015136062635641174,18.899999618530273,1627,0,-17.100000381469727,32.25,-67.3499984741211,2779096485
-0.14466562881469727,1.8594857368469238,9.75793055114746,-0.06636829751672653,-0.0623185017118042,-0.017971283886363373,19.0,1628,0,-17.100000381469727,32.25,-67.3499984741211,2779096485
-0.15383918457031248,1.8422993621826171,9.821588269805908,-0.06570604259510499,-0.05162758780009338,-0.015476507831251832,19.0,1629,0,-17.25,31.799999237060547,-67.94999694824219,2779096485
-0.15167614440917968,1.8423774574279785,9.880692314147948,-0.06411493035486893,-0.03832346706040909,-0.0170705628644722,19.0,1630,0,-17.25,31.799999237060547,-67.94999694824219,2779096485
-0.14087589721679686,1.8646260040283202,9.943407805633544,-0.058387223232478636,-0.02585114473407837,-0.017858572251903078,19.0,1631,0,-17.25,31.799999237060547,-67.94999694824219,2779096485
-0.12973347396850585,1.8925027542114257,9.992487957000732,-0.05396730130180069,-0.01401048426655716,-0.018911426350019533,19.0,1632,0,-17.25,31.799999237060547,-67.94999694824219,2779096485
-0.12227106018066405,1.9159784317016602,10.04805820083618,-0.047623092365001986,-0.0031686756485194397,-0.021597144396074828,19.0,1633,0,-17.399999618530273,32.400001525878906,-68.0999984741211,2779096485
-0.12373382263183594,1.9319456382751463,10.106398751068115,-0.03752710200511551,0.008744476063375549,-0.02538611020562729,19.0,1634,0,-17.399999618530273,32.400001525878906,-68.0999984741211,2779096485
-0.1380182243347168,1.9325595588684081,10.166105164337157,-0.027159009820622863,0.016813774216028747,-0.027442316895438537,19.0,1635,0,-17.399999618530273,32.400001525878906,-68.0999984741211,2779096485
-0.1625827491760254,1.9237922927856446,10.201505413818358,-0.01409755631779892,0.027666828031692046,-0.028522182104725496,19.0,1636,0,-17.399999618530273,32.400001525878906,-68.0999984741211,2779096485
-0.18528917541503906,1.9011311012268066,10.218754219818114,-0.000783808250840149,0.03626827237180511,-0.027423461715050355,19.0,1637,0,-18.149999618530273,31.649999618530273,-67.05000305175781,2779096485
-0.21142988586425782,1.882438523864746,10.212437589263915,0.014384159054440918,0.044726957962665556,-0.026419436675184937,19.0,1638,0,-18.149999618530273,31.649999618530273,-67.05000305175781,2779096485
-0.22621818695068358,1.8629588630676268,10.186565034484863,0.027452117328182677,0.05488322231550903,-0.026047825837131805,19.0,1639,0,-18.149999618530273,31.649999618530273,-67.05000305175781,2779096485
-0.22315430374145506,1.854819499206543,10.160210749053954,0.04018028953867905,0.06171677378344147,-0.0259349877025206,19.0,1640,0,-18.149999618530273,31.649999618530273,-67.05000305175781,2779096485
-0.20579700927734373,1.8468296714782715,10.137891995239258,0.0526498488353978,0.06738278212170136,-0.02590769030153488,19.0,1641,0,-17.25,31.649999618530273,-67.3499984741211,2779096485
-0.1826913589477539,1.8432531410217285,10.104026509857178,0.062322023742321625,0.07438449223760848,-0.02678073442198761,19.0,1642,0,-17.25,31.649999618530273,-67.3499984741211,2779096485
-0.16459423446655272,1.8449642829895019,10.054665155792236,0.07034163396727813,0.07956341507374298,-0.03081044999242874,19.0,1643,0,-17.25,31.649999618530273,-67.3499984741211,2779096485
-0.15168081741333006,1.8603674392700196,9.991998637390136,0.07626793301079086,0.08334324624081925,-0.030210552987302856,19.0,1644,0,-17.25,31.649999618530273,-67.3499984741211,2779096485
-0.15303617553710938,1.8689620285034179,9.921125875091553,0.07695356382871994,0.0878351001520459,-0.029685484150391236,19.0,1645,0,-18.149999618530273,32.099998474121094,-67.05000305175781,2779096485
-0.16602806167602538,1.8813870979309082,9.831349614715576,0.07728592633047775,0.0925462720354361,-0.03395891890631607,19.0,1646,0,-18.149999618530273,32.099998474121094,-67.05000305175781,2779096485
-0.18300676803588867,1.8902584785461425,9.76661583404541,0.07831362687227127,0.0921531761454364,-0.03369136442923996,19.0,1647,0,-18.149999618530273,32.099998474121094,-67.05000305175781,2779096485
-0.2078037841796875,1.8899297981262206,9.722848028564453,0.07674120336485642,0.09267564174240037,-0.0354079515033728,19.0,1648,0,-17.549999237060547,31.950000762939453,-67.80000305175781,2779096485
-0.21716736297607422,1.885806526184082,9.685376927947997,0.07132888775029404,0.0921426167117868,-0.03411974054553803,19.0,1649,0,-17.549999237060547,31.950000762939453,-67.80000305175781,2779096485
-0.23249683532714843,1.8837918258666992,9.659550542449951,0.07046945904082078,0.08910325084910752,-0.0337434625177066,19.100000381469727,1650,0,-17.549999237060547,31.950000762939453,-67.80000305175781,2779096485
-0.2517416496276855,1.8841357215881347,9.633476263427735,0.06595430912811874,0.08727694819672012,-0.03073174692485504,19.100000381469727,1651,0,-17.549999237060547,31.950000762939453,-67.80000305175781,2779096485
-0.2597452346801758,1.8884874099731446,9.586247332000733,0.06404878409174866,0.08163405609656327,-0.029256708559932405,19.100000381469727,1652,0,-17.100000381469727,31.950000762939453,-67.19999694824219,2779096485
-0.26381661758422853,1.9004930305480956,9.542531340789795,0.06205577421417068,0.0761637301759549,-0.028596803877956697,19.100000381469727,1653,0,-17.100000381469727,31.950000762939453,-67.19999694824219,2779096485
-0.25588970718383786,1.9176165252685546,9.498111744689941,0.05829004448496948,0.06834078773824646,-0.023398386702776795,19.0,1654,0,-17.100000381469727,31.950000762939453,-67.19999694824219,2779096485
-0.2447728172302246,1.9455782119750975,9.476560186004638,0.05299342324526779,0.05955829505057129,-0.022443317221313323,18.899999618530273,1655,0,-17.100000381469727,31.950000762939453,-67.19999694824219,2779096485
-0.22272565841674805,1.969123461151123,9.460510398101807,0.04900629827826706,0.05087107029233627,-0.021040423889825133,18.899999618530273,1656,0,-17.850000381469727,32.25,-67.3499984741211,2779096485
-0.2120565544128418,1.9885153816223144,9.439165647888183,0.04514878270272705,0.03991547811750687,-0.01953627051648529,19.0,1657,0,-17.850000381469727,32.25,-67.3499984741211,2779096485
-0.2064893241882324,1.9927847503662108,9.417306381225586,0.04108664314623703,0.02733513797810486,-0.022193659186639556,19.0,1658,0,-17.850000381469727,32.25,-67.3499984741211,2779096485
-0.21635067138671873,1.9870422637939453,9.397328540802002,0.03692907587064255,0.015147933676118622,-0.0196918923337146,19.0,1659,0,-17.850000381469727,32.25,-67.3499984741211,2779096485
-0.21984910659790038,1.9794815673828123,9.376937307739258,0.032685468518721617,0.0031881500138568114,-0.02217020339549988,19.0,1660,0,-17.399999618530273,31.350000381469727,-66.5999984741211,2779096485
-0.22416621475219725,1.9638840515136717,9.354776015472412,0.028269334934668273,-0.009998492033048706,-0.021112628844383696,19.0,1661,0,-17.399999618530273,31.350000381469727,-66.5999984741211,2779096485
-0.21993994979858397,1.950463370513916,9.329634804534912,0.02104990474324066,-0.019783311995406037,-0.020691017157207947,19.0,1662,0,-17.399999618530273,31.350000381469727,-66.5999984741211,2779096485
-0.2065108573913574,1.934022882080078,9.336541168212891,0.015064130655092468,-0.029909922049715272,-0.02054323834933502,19.100000381469727,1663,0,-17.399999618530273,31.350000381469727,-66.5999984741211,2779096485
-0.1919796089172363,1.9321073242187499,9.361746417999267,0.0076014739629794315,-0.04032988595398346,-0.024191429464633332,19.100000381469727,1664,0,-17.100000381469727,32.25,-67.6500015258789,2779096485
-0.1728002166748047,1.93616222076416,9.40044016342163,0.0002852644982034302,-0.04679164682049042,-0.02341900622737503,19.100000381469727,1665,0,-17.100000381469727,32.25,-67.6500015258789,2779096485
-0.19207579803466795,1.9225417594909668,9.762749502563477,-0.03054722315209427,-0.04985529405424164,-0.03724609856462692,19.0,1670,0,-16.350000381469727,31.649999618530273,-67.6500015258789,2779096485
-0.19312098083496093,1.910476212310791,9.842848494720458,-0.02959918441586029,-0.045541898566434785,-0.036630781856895445,19.0,1671,0,-16.350000381469727,31.649999618530273,-67.6500015258789,2779096485
-0.19250511627197264,1.9091821640014648,9.910112426757813,-0.025584595600306854,-0.04474178511193268,-0.038005605470687105,19.0,1672,0,-16.799999237060547,31.049999237060547,-67.19999694824219,2779096485
-0.1843456024169922,1.9133488761901856,9.969307987213135,-0.018178098317294923,-0.038932312286736145,-0.04167325763551743,19.0,1673,0,-16.799999237060547,31.049999237060547,-67.19999694824219,2779096485
-0.1784025131225586,1.9097792991638183,10.01307029724121,-0.008071408707802583,-0.03163521766055283,-0.039470570428855746,19.0,1674,0,-16.799999237060547,31.049999237060547,-67.19999694824219,2779096485
-0.17311786880493163,1.9046209007263184,10.050436087036132,0.0035361585869113157,-0.02932730895994522,-0.04386482614470444,19.0,1675,0,-16.799999237060547,31.049999237060547,-67.19999694824219,2779096485
-0.1675715362548828,1.8912027618408203,10.063533956909179,0.01705608858404709,-0.02456065677352722,-0.04420017138686264,19.0,1676,0,-17.25,31.5,-67.19999694824219,2779096485
-0.16724278106689452,1.8811405876159668,10.063198734283446,0.031036598972741393,-0.01904382540270294,-0.04616722875979614,19.0,1677,0,-17.25,31.5,-67.19999694824219,2779096485
-0.16958096542358397,1.867527266693115,10.05450507736206,0.04430121837582855,-0.01593582322130127,-0.05165650972933289,19.0,1678,0,-17.25,31.5,-67.19999694824219,2779096485
-0.17499925765991212,1.8588943962097166,10.030403890228271,0.056746696038555755,-0.01076477668403656,-0.05172011267362961,19.0,1679,0,-17.25,31.5,-67.19999694824219,2779096485
-0.17003776092529296,1.853960750579834,10.008937380218505,0.06852356048260254,-0.0068256019321331785,-0.05421940278675781,19.0,1680,0,-17.700000762939453,32.400001525878906,-66.9000015258789,2779096485
-0.17158788986206053,1.8515117225646973,9.957015481567382,0.07768201161878052,-0.0030767566441270446,-0.05770483481315445,19.0,1681,0,-17.700000762939453,32.400001525878906,-66.9000015258789,2779096485
-0.17137218399047852,1.853354904937744,9.905325513458251,0.08866418879900895,0.00023007048499084474,-0.0584798013692363,19.0,1682,0,-17.700000762939453,32.400001525878906,-66.9000015258789,2779096485
-0.17364883422851562,1.845775553894043,9.849307221984862,0.09326869442357177,0.0034169022341171266,-0.06104336687483185,18.899999618530273,1683,0,-17.700000762939453,32.400001525878906,-66.9000015258789,2779096485
-0.1791442497253418,1.8505004844665527,9.781838687133789,0.10033607143360626,0.00521386350939621,-0.06161747116497757,18.899999618530273,1684,0,-17.100000381469727,31.950000762939453,-67.6500015258789,2779096485
-0.18614063415527343,1.8609582939147948,9.730959616088867,0.10600902396436081,0.006449836562808075,-0.06471980747119904,18.899999618530273,1685,0,-17.100000381469727,31.950000762939453,-67.6500015258789,2779096485
-0.18828554306030273,1.8684113616943359,9.680466011810303,0.10713994197139375,0.007719325498308258,-0.06327959659519257,18.899999618530273,1686,0,-17.100000381469727,31.950000762939453,-67.6500015258789,2779096485
-0.1952140754699707,1.883229196166992,9.637130889129638,0.10940890859922928,0.007998298278479614,-0.06238309002569748,18.899999618530273,1687,0,-17.25,31.649999618530273,-67.5,2779096485
-0.20677306900024414,1.9027311378479004,9.584416411590576,0.10600214635089295,0.008535670919542847,-0.06210152066348114,18.899999618530273,1688,0,-17.25,31.649999618530273,-67.5,2779096485
-0.22010559844970704,1.9074879570007324,9.530481868743896,0.10226602431490722,0.010572017085661316,-0.05955841489281952,19.0,1689,0,-17.25,31.649999618530273,-67.5,2779096485
-0.2417916648864746,1.9132183685302733,9.469508547973632,0.09624726697688507,0.008589040667421265,-0.05989268821264633,19.0,1690,0,-17.25,31.649999618530273,-67.5,2779096485
-0.2673920639038086,1.9156415267944336,9.41613196182251,0.08891365375450501,0.0079795829140477,-0.056786776612686,19.0,1691,0,-17.549999237060547,32.400001525878906,-67.05000305175781,2779096485
-0.29488858108520505,1.9129108474731444,9.381270752716064,0.07905476462483887,0.004861980036982269,-0.05284844741442291,19.0,1692,0,-17.549999237060547,32.400001525878906,-67.05000305175781,2779096485
-0.3094465965270996,1.9076961486816406,9.354919420623778,0.06684318574114319,0.0003771635288877869,-0.05116057587454651,19.0,1693,0,-17.549999237060547,32.400001525878906,-67.05000305175781,2779096485
-0.3193472717285156,1.9069086540222167,9.346411749267578,0.056544835087217714,-0.0020048010232232667,-0.04505039221693024,19.0,1694,0,-17.549999237060547,32.400001525878906,-67.05000305175781,2779096485
-0.32178710327148435,1.9142579437255858,9.339509273529053,0.04258498417053772,-0.006195584575285492,-0.040188658522347105,19.0,1695,0,-17.25,32.54999923706055,-67.19999694824219,2779096485
-0.31669079971313474,1.9161910346984863,9.355613230895996,0.03211101135973389,-0.007965514765686035,-0.03598130345051575,19.0,1696,0,-17.25,32.54999923706055,-67.19999694824219,2779096485
-0.30435590057373046,1.9144044143676757,9.373637493896483,0.021381754586492156,-0.012070258241421813,-0.03194593532069977,19.0,1697,0,-17.25,32.54999923706055,-67.19999694824219,2779096485
-0.2892605644226074,1.9185536308288573,9.399178713989258,0.011871952610114594,-0.015268907767804108,-0.027012615856507265,19.0,1698,0,-17.25,32.54999923706055,-67.19999694824219,2779096485
-0.26095565490722655,1.9101452514648436,9.445142980957032,0.00384409990164093,-0.017488159836332246,-0.023174334961808166,19.0,1699,0,-16.649999618530273,31.799999237060547,-66.9000015258789,2779096485
-0.24295210266113282,1.907006600189209,9.493067068481444,-0.0031362250308598328,-0.019025682617901458,-0.02377843976142746,19.0,1700,0,-16.649999618530273,31.799999237060547,-66.9000015258789,2779096485
-0.22679935913085936,1.9010079956054686,9.541544327545166,-0.008209420372444763,-0.018194037336309508,-0.019237297396664885,19.0,1701,0,-16.649999618530273,31.799999237060547,-66.9000015258789,2779096485
-0.20647403411865234,1.904785353088379,9.580951509857178,-0.01085232810427124,-0.017738949714461518,-0.013889783148881531,18.899999618530273,1702,0,-16.649999618530273,31.799999237060547,-66.9000015258789,2779096485
-0.1830204879760742,1.9052910469055175,9.619883466339111,-0.01078067575563507,-0.015962281726549378,-0.01380666589183136,18.899999618530273,1703,0,-17.399999618530273,32.54999923706055,-67.6500015258789,2779096485
-0.1553718551635742,1.900627239227295,9.644155573272705,-0.011065640648217925,-0.01389887784394165,-0.010464438694166871,18.899999618530273,1704,0,-17.399999618530273,32.54999923706055,-67.6500015258789,2779096485
-0.1313047996520996,1.9036763557434082,9.659756266784667,-0.009354506396379548,-0.010292118857017517,-0.011020806331574555,19.200000762939453,1705,0,-17.399999618530273,32.54999923706055,-67.6500015258789,2779096485
-0.11351441116333008,1.8939441329956055,9.693849869537353,-0.006900490021471558,-0.008196490725441284,-0.010763738051218568,19.200000762939453,1706,0,-17.399999618530273,32.54999923706055,-67.6500015258789,2779096485
-0.1080775764465332,1.8866261337280272,9.71208617477417,-0.002763508980961914,-0.005268658048448028,-0.013138805016153717,19.200000762939453,1707,0,-16.950000762939453,31.799999237060547,-67.3499984741211,2779096485
-0.09400230102539062,1.8712229400634766,9.74426519165039,0.0030403578901785277,-0.0017276458504833984,-0.012088094762700043,19.100000381469727,1708,0,-16.950000762939453,31.799999237060547,-67.3499984741211,2779096485
-0.08710857315063476,1.861778237915039,9.769478665924073,0.008612589669198456,0.002121094609325104,-0.01284572414020462,19.0,1709,0,-16.950000762939453,31.799999237060547,-67.3499984741211,2779096485
-0.07958096160888671,1.8632230186462402,9.791605527496337,0.015671298089944306,0.00688527005594635,-0.01270590818393631,19.0,1710,0,-16.950000762939453,31.799999237060547,-67.3499984741211,2779096485
-0.06973352127075196,1.8586525215148926,9.80011906814575,0.023394178908283388,0.011311703415444794,-0.013294646544171448,18.899999618530273,1711,0,-17.549999237060547,32.70000076293945,-67.80000305175781,2779096485
-0.0780962547302246,1.8637498718261718,9.774204418945311,0.032887875418079374,0.014250601526691284,-0.013882532692863617,18.799999237060547,1712,0,-17.549999237060547,32.70000076293945,-67.80000305175781,2779096485
-0.07599086074829102,1.8668542419433594,9.757458988952637,0.04039439437304459,0.01531874882726242,-0.015813664022938843,18.799999237060547,1713,0,-17.549999237060547,32.70000076293945,-67.80000305175781,2779096485
-0.08327162551879883,1.8642245742797852,9.717432540130615,0.053595137857825166,0.014561325844740906,-0.014588004060777435,18.899999618530273,1714,0,-17.549999237060547,32.70000076293945,-67.80000305175781,2779096485
-0.08623774948120116,1.859379416656494,9.679314471435546,0.061028979147141574,0.014029778868522186,-0.01678398010153824,18.899999618530273,1715,0,-17.399999618530273,31.950000762939453,-67.05000305175781,2779096485
-0.08872434844970703,1.8520927452087401,9.674136072540282,0.07029002856360977,0.012138448480664673,-0.018710817084385222,18.899999618530273,1716,0,-17.399999618530273,31.950000762939453,-67.05000305175781,2779096485
-0.11292785568237304,1.8623478210449218,9.605033032989502,0.07568276328639191,0.0087584510010997,-0.019987949292161408,19.0,1717,0,-17.399999618530273,31.950000762939453,-67.05000305175781,2779096485
-0.12077121276855468,1.8584199180603027,9.570707163238525,0.07944855293671722,0.0067902684426133725,-0.020899016694816436,19.0,1718,0,-17.399999618530273,31.950000762939453,-67.05000305175781,2779096485
-0.14748887100219726,1.859561028289795,9.518841041564942,0.08233585230219803,0.00472466745212143,-0.021445024635654907,19.0,1719,0,-17.25,31.950000762939453,-68.0999984741211,2779096485
-0.17500703353881836,1.8525632606506348,9.492036353302002,0.08390622517558761,0.005005238128935852,-0.020274478791873933,19.0,1720,0,-17.25,31.950000762939453,-68.0999984741211,2779096485
-0.18959245147705078,1.8549212211608885,9.478062463378906,0.08146505189494828,0.0039154659604618836,-0.021529693184029388,19.0,1721,0,-17.25,31.950000762939453,-68.0999984741211,2779096485
-0.20885091094970704,1.859657292175293,9.48408282546997,0.07954015901968368,0.004757584122968598,-0.017180151942575838,19.0,1722,0,-17.25,31.950000762939453,-68.0999984741211,2779096485
-0.22678848037719726,1.877214591217041,9.451519089508057,0.07779524922755249,0.003968010128408051,-0.014817342176473541,19.0,1723,0,-16.799999237060547,32.849998474121094,-67.6500015258789,2779096485
-0.2266524024963379,1.9008231315612791,9.437481871032714,0.07450392169587235,0.00313183747299408,-0.012446736006333618,19.100000381469727,1724,0,-16.799999237060547,32.849998474121094,-67.6500015258789,2779096485
-0.24137015991210936,1.9274513671875,9.421129496765136,0.07327861460255294,0.003783040276167755,-0.009547558942472686,19.100000381469727,1725,0,-16.799999237060547,32.849998474121094,-67.6500015258789,2779096485
-0.2570799026489258,1.9509101470947265,9.389546717834472,0.07022716464651046,0.0016598550854013063,-0.005545839852798614,19.100000381469727,1726,0,-16.799999237060547,32.849998474121094,-67.6500015258789,2779096485
-0.2636819602966308,1.9616051208496093,9.379432654571533,0.0664074326686763,-0.001330322192282257,-0.0010843792673036195,19.100000381469727,1727,0,-18.0,32.099998474121094,-67.19999694824219,2779096485
-0.27363960876464843,1.974744374847412,9.353079752349853,0.06158051980510666,-0.005975514260119171,0.0019409317628193664,19.100000381469727,1728,0,-18.0,32.099998474121094,-67.19999694824219,2779096485
-0.2810814987182617,1.973152375793457,9.329047688293457,0.057936103720627595,-0.010868992834677887,0.0052310475562118534,19.100000381469727,1729,0,-18.0,32.099998474121094,-67.19999694824219,2779096485
-0.28721748962402344,1.9799356338500975,9.2986210105896,0.05287364091816193,-0.017242876043718873,0.008710101311841583,19.100000381469727,1730,0,-17.399999618530273,31.950000762939453,-67.05000305175781,2779096485
-0.27718918533325193,1.977021361541748,9.263012270355224,0.04554778415240341,-0.024321058829802095,0.013014788262943725,19.0,1731,0,-17.399999618530273,31.950000762939453,-67.05000305175781,2779096485
-0.27443555221557614,1.9834290222167967,9.226584520721435,0.04199710467974823,-0.03506659417509506,0.016143150310739134,19.0,1732,0,-17.399999618530273,31.950000762939453,-67.05000305175781,2779096485
-0.25184961471557615,1.986686666870117,9.223397270202636,0.033729567474814606,-0.045181752636795657,0.020100534426470796,19.0,1733,0,-17.399999618530273,31.950000762939453,-67.05000305175781,2779096485
-0.238032999420166,1.9937052947998046,9.20079211730957,0.026512507496740875,-0.056028907550684966,0.022246076854434815,19.0,1734,0,-17.100000381469727,32.70000076293945,-67.05000305175781,2779096485
-0.21771713256835937,1.992262794494629,9.201355905914307,0.016416463873632964,-0.06785530013276413,0.025672593100021058,19.0,1735,0,-17.100000381469727,32.70000076293945,-67.05000305175781,2779096485
-0.2129227424621582,1.9899360496520995,9.19179135055542,0.0078012576486814885,-0.07825666851484864,0.02764035621063858,19.0,1736,0,-17.100000381469727,32.70000076293945,-67.05000305175781,2779096485
-0.20236380920410155,1.9945649032592774,9.183383419799805,-0.0031692881755659486,-0.08946336348923324,0.030162356429806365,19.0,1737,0,-17.100000381469727,32.70000076293945,-67.05000305175781,2779096485
-0.19639215850830077,1.997492259979248,9.177680859375,-0.014667439497645873,-0.09915649081588929,0.031322822208930665,19.0,1738,0,-17.399999618530273,32.54999923706055,-66.75,2779096485
-0.18161368942260742,1.987380290222168,9.19478674621582,-0.02468641123933655,-0.10722162777936783,0.03383048130572693,19.0,1739,0,-17.399999618530273,32.54999923706055,-66.75,2779096485
-0.16999106826782226,1.9789529945373534,9.20448229522705,-0.034611686316619414,-0.11761593212670944,0.03679868750456833,19.0,1740,0,-17.399999618530273,32.54999923706055,-66.75,2779096485
-0.16876629257202147,1.979893016052246,9.18861740875244,-0.04288056175999161,-0.12719648763486144,0.040301509972763674,19.0,1741,0,-17.399999618530273,32.54999923706055,-66.75,2779096485
-0.15861077041625976,1.9790088836669921,9.203681192779541,-0.05080602258315811,-0.13445883466696076,0.04198424161177155,19.0,1742,0,-16.950000762939453,31.649999618530273,-67.5,2779096485
-0.15298809967041016,1.9808092613220214,9.214137319946289,-0.0576022764802803,-0.13990951977466476,0.04555797740140564,19.0,1743,0,-16.950000762939453,31.649999618530273,-67.5,2779096485
-0.1309088279724121,1.982734838104248,9.22508729019165,-0.06370098191367722,-0.1450021162446576,0.048946949733782504,19.0,1744,0,-16.950000762939453,31.649999618530273,-67.5,2779096485
-0.10791600265502929,1.9805395355224609,9.212832841491698,-0.06849704205623032,-0.14783573959873672,0.05404368741924195,19.0,1745,0,-16.950000762939453,31.649999618530273,-67.5,2779096485
-0.08613756027221679,1.9698094207763672,9.177170642089843,-0.07161340656339737,-0.15210831548521592,0.05533843643750794,19.100000381469727,1746,0,-16.649999618530273,31.799999237060547,-67.05000305175781,2779096485
-0.06389955596923828,1.9686219169616699,9.131845156097413,-0.07201151585411468,-0.15679685049949602,0.05789368622265686,19.100000381469727,1747,0,-16.649999618530273,31.799999237060547,-67.05000305175781,2779096485
-0.03196551666259766,1.9673604675292968,9.057913333129882,-0.07600814164823898,-0.16026388008288667,0.06000306958116882,19.100000381469727,1748,0,-16.649999618530273,31.799999237060547,-67.05000305175781,2779096485
0.005915425109863281,1.9718100646972656,9.007474795532227,-0.08078433460919662,-0.16409542983797684,0.0605777397930423,19.200000762939453,1749,0,-16.649999618530273,31.799999237060547,-67.05000305175781,2779096485
0.03743450164794922,1.9819345954895018,8.953343949127197,-0.08504248282056946,-0.16766627609784807,0.06114923418533768,19.200000762939453,1750,0,-17.25,32.54999923706055,-66.5999984741211,2779096485
0.08012523574829102,1.9858136749267576,8.897039669799804,-0.09315612926297043,-0.1694070912798314,0.05783363859839096,19.200000762939453,1751,0,-17.25,32.54999923706055,-66.5999984741211,2779096485
0.11962199020385741,2.0011427734375,8.79918924331665,-0.09884643894601028,-0.1733106662261078,0.05858911747333008,19.200000762939453,1752,0,-17.25,32.54999923706055,-66.5999984741211,2779096485
0.18337746810913086,2.018660856628418,8.715595928192139,-0.10703730374368745,-0.17519679013406997,0.05436200840424881,19.0,1753,0,-17.25,32.54999923706055,-66.5999984741211,2779096485
0.23194691619873045,2.0254528251647947,8.601351294708252,-0.11347757955824783,-0.1818849263495807,0.0494283027817009,19.0,1754,0,-17.399999618530273,33.900001525878906,-67.19999694824219,2779096485
0.279113939666748,2.0382120704650877,8.506104142761231,-0.12219087000547287,-0.18733114400458678,0.0430495326720932,19.0,1755,0,-17.399999618530273,33.900001525878906,-67.19999694824219,2779096485
0.31483771057128906,2.0570990074157716,8.37253211364746,-0.13238541064082046,-0.19419404350753022,0.039125404780245364,19.0,1756,0,-17.399999618530273,33.900001525878906,-67.19999694824219,2779096485
0.3570600227355957,2.0676796981811525,8.2619836769104,-0.1455554611942488,-0.20157083988668914,0.029961341032108613,19.0,1757,0,-17.399999618530273,33.900001525878906,-67.19999694824219,2779096485
0.4000455299377441,2.078645332336426,8.153962475585937,-0.16073448727588044,-0.2102324650091217,0.018725950497175597,19.0,1758,0,-17.700000762939453,32.849998474121094,-67.5,2779096485
0.43247842178344725,2.0941773139953614,8.02513862991333,-0.17889434293983367,-0.2178559499983594,0.005323465903305206,18.899999618530273,1759,0,-17.700000762939453,32.849998474121094,-67.5,2779096485
0.453697599029541,2.09484185256958,7.919573110961914,-0.20323624100502244,-0.2226442004210695,-0.006345007885120239,18.899999618530273,1760,0,-17.700000762939453,32.849998474121094,-67.5,2779096485
0.4765861602783203,2.114079676055908,7.825437012481689,-0.231255418562316,-0.22367556946723938,-0.019009810177913665,18.899999618530273,1761,0,-17.700000762939453,32.849998474121094,-67.5,2779096485
0.509698469543457,2.1082412620544435,7.767370001220703,-0.26344497319995924,-0.2245874158445079,-0.03193036248633255,19.0,1762,0,-17.549999237060547,31.799999237060547,-66.5999984741211,2779096485
0.540931371307373,2.124037885284424,7.753003541564941,-0.300541408770255,-0.22422149085534301,-0.049185509044689636,19.0,1763,0,-17.549999237060547,31.799999237060547,-66.5999984741211,2779096485
0.5770373565673828,2.1105129402160645,7.726859765625,-0.33765809102259886,-0.21890506235517,-0.06356121256272766,19.0,1764,0,-17.549999237060547,31.799999237060547,-66.5999984741211,2779096485
0.5924352790832519,2.108220738220215,7.698756468200683,-0.37302265963211245,-0.21556787518983384,-0.07875088463074371,19.0,1765,0,-17.549999237060547,31.799999237060547,-66.5999984741211,2779096485
0.6067299240112305,2.0955479995727537,7.708419493103027,-0.40647811459571165,-0.20809886020066193,-0.09369009305786179,19.0,1766,0,-17.700000762939453,32.099998474121094,-68.0999984741211,2779096485
0.6017376976013183,2.068904062652588,7.705891435241699,-0.43860840058370254,-0.20231511351141876,-0.10862712435080368,19.0,1767,0,-17.700000762939453,32.099998474121094,-68.0999984741211,2779096485
0.5813122581481933,2.0215325111389157,7.685417546081543,-0.4661135747383377,-0.1939063755064595,-0.12250257303521637,19.0,1768,0,-17.700000762939453,32.099998474121094,-68.0999984741211,2779096485
0.5546353485107421,1.9442006477355955,7.639227030944824,-0.49084634495403123,-0.18397203236572723,-0.1334065664642801,19.0,1769,0,-17.549999237060547,32.25,-66.9000015258789,2779096485
0.5550029830932617,1.8684880363464356,7.567898893737793,-0.5164503017353299,-0.17458527508876848,-0.14530152878605485,19.0,1770,0,-17.549999237060547,32.25,-66.9000015258789,2779096485
0.5938256286621093,1.8362576538085937,7.440723796081543,-0.5440653179683705,-0.1626530085382808,-0.15411972114789718,19.100000381469727,1771,0,-17.549999237060547,32.25,-66.9000015258789,2779096485
0.6569752235412597,1.8416802452087402,7.295942538452148,-0.5724470050107544,-0.1512597125254994,-0.16619144412790848,19.100000381469727,1772,0,-17.549999237060547,32.25,-66.9000015258789,2779096485
0.7424098892211913,1.8901572052001951,7.111166421508789,-0.6035556025430713,-0.1404403144078807,-0.17780068921409758,19.100000381469727,1773,0,-17.850000381469727,31.950000762939453,-67.05000305175781,2779096485
0.8216641891479491,1.94676612701416,6.909369429016113,-0.64095064504854,-0.1293714579926686,-0.1910186500352072,19.100000381469727,1774,0,-17.850000381469727,31.950000762939453,-67.05000305175781,2779096485
0.8658371253967285,1.9909796249389649,6.683174345397949,-0.6799787179495146,-0.1193441106094072,-0.20821597936669603,18.899999618530273,1775,0,-17.850000381469727,31.950000762939453,-67.05000305175781,2779096485
0.8791696548461914,2.0221283752441406,6.487603887939453,-0.7230508675170099,-0.1131753440661145,-0.22402381772479035,18.799999237060547,1776,0,-17.850000381469727,31.950000762939453,-67.05000305175781,2779096485
0.8735444046020507,2.03161079788208,6.297794123077392,-0.7701813816101759,-0.10549410177113266,-0.23990966007067704,18.799999237060547,1777,0,-18.149999618530273,31.799999237060547,-68.0999984741211,2779096485
0.8297258316040039,2.010544745635986,6.1031663040161135,-0.8234790110867701,-0.09946176231164444,-0.2537743961896785,19.0,1778,0,-18.149999618530273,31.799999237060547,-68.0999984741211,2779096485
0.7901547576904296,1.9902603187561034,5.925567510223389,-0.8801419307359105,-0.09258600639862702,-0.265008135564747,19.0,1779,0,-18.149999618530273,31.799999237060547,-68.0999984741211,2779096485
0.7048295524597168,1.9491154144287108,5.768940037536621,-0.9420549262271205,-0.087790339072332,-0.2743162696689642,19.0,1780,0,-18.149999618530273,31.799999237060547,-68.0999984741211,2779096485
0.6564552864074706,1.9598918479919434,5.558181681060791,-1.0059591605937959,-0.08295463111932282,-0.2819866196351625,19.100000381469727,1781,0,-17.399999618530273,30.600000381469727,-66.9000015258789,2779096485
0.5608520515441895,1.8749466140747069,5.346964809417725,-1.0759635784482628,-0.08449084895196686,-0.28789361076090486,19.100000381469727,1782,0,-17.399999618530273,30.600000381469727,-66.9000015258789,2779096485
0.48646137695312497,1.826264303588867,5.118890168762207,-1.14806952333608,-0.08878341852019242,-0.2882616862526352,19.100000381469727,1783,0,-17.399999618530273,30.600000381469727,-66.9000015258789,2779096485
0.4373930389404297,1.7933019416809082,4.838373542785645,-1.2230422013280013,-0.10277202491854492,-0.2865948070799071,19.100000381469727,1784,0,-17.399999618530273,30.600000381469727,-66.9000015258789,2779096485
0.4625223243713379,1.8150241210937499,4.610447017669678,-1.3023642474559063,-0.12500995915800278,-0.2825302906521605,19.0,1785,0,-17.700000762939453,30.149999618530273,-67.80000305175781,2779096485
0.47147366943359376,1.7855292030334473,4.383851999664307,-1.3843517982373321,-0.15522344828038728,-0.28023794147011477,19.0,1786,0,-17.700000762939453,30.149999618530273,-67.80000305175781,2779096485
0.5597427551269532,1.797697257232666,4.231716031646728,-1.4731573209944202,-0.18939639212623674,-0.2751930888202362,19.0,1787,0,-17.700000762939453,30.149999618530273,-67.80000305175781,2779096485
0.6694042182922363,1.7916051177978516,4.087536320495605,-1.564010235378172,-0.22902544061257127,-0.2686770593889891,19.0,1788,0,-17.700000762939453,30.149999618530273,-67.80000305175781,2779096485
0.8462469947814941,1.8231266242980957,4.000633770751953,-1.6600256076047322,-0.27441897447569735,-0.26429163205209333,19.0,1789,0,-17.549999237060547,30.149999618530273,-68.4000015258789,2779096485
1.0776265335083008,1.8583968894958496,3.9535230850219727,-1.7583053258746681,-0.324210878638528,-0.25870631749430834,19.0,1790,0,-17.549999237060547,30.149999618530273,-68.4000015258789,2779096485
1.334020588684082,1.8433988639831542,3.9821697219848633,-1.8590097657477227,-0.3735154176673207,-0.26216682233307315,19.0,1791,0,-17.549999237060547,30.149999618530273,-68.4000015258789,2779096485
1.5669646118164062,1.8095682579040526,4.046953896331787,-1.9600468078070314,-0.4282345759450029,-0.2692286599680783,19.0,1792,0,-17.549999237060547,30.149999618530273,-68.4000015258789,2779096485
1.6763566856384278,1.7177712036132813,4.220989804840087,-2.066327860359069,-0.4807359668664545,-0.27872458021736923,19.0,1793,0,-17.549999237060547,30.0,-67.94999694824219,2779096485
1.6117112434387206,1.5615138328552245,4.469630000305176,-2.1735182226274543,-0.520573773891303,-0.28681320626150086,19.0,1794,0,-17.549999237060547,30.0,-67.94999694824219,2779096485
1.5483524475097656,1.3816285942077635,4.670878045654296,-2.284930081352962,-0.5504037678193515,-0.28876574940659316,19.0,1795,0,-17.549999237060547,30.0,-67.94999694824219,2779096485
1.5295019226074218,1.2389585998535155,4.880261417388916,-2.3995017940059387,-0.5744840702303623,-0.28955050307961383,19.0,1796,0,-17.549999237060547,30.0,-67.94999694824219,2779096485
1.5528563636779784,1.157509819793701,5.158367259216308,-2.515640250975345,-0.5935859858339433,-0.2883542444156848,19.0,1797,0,-18.149999618530273,28.950000762939453,-68.0999984741211,2779096485
1.5450578300476074,1.1018594993591309,5.5714533866882325,-2.6345268504863286,-0.6079330736862651,-0.28625607296528505,19.0,1798,0,-18.149999618530273,28.950000762939453,-68.0999984741211,2779096485
1.5077328262329102,1.0476449127197265,6.004009455108642,-2.753418822924775,-0.6172687049285485,-0.28318447619573456,19.0,1799,0,-18.149999618530273,28.950000762939453,-68.0999984741211,2779096485
1.5078146598815918,1.012525454711914,6.495301858520508,-2.8731015944118745,-0.6246423720934481,-0.28147507965649554,19.0,1800,0,-18.149999618530273,28.950000762939453,-68.0999984741211,2779096485
1.4583817153930663,0.944872541809082,6.9540153480529785,-2.9847498020246,-0.6325565011662542,-0.2809687062103078,19.0,1801,0,-18.149999618530273,28.350000381469727,-68.8499984741211,2779096485
1.4066328300476074,0.8371950866699218,7.433297943878173,-3.087696803283463,-0.6422071910212314,-0.2796736975338373,19.0,1802,0,-18.149999618530273,28.350000381469727,-68.8499984741211,2779096485
1.6873895736694335,0.6193142120361328,7.541477391815185,-3.188997518262586,-0.6656645933733588,-0.28267968067248184,19.0,1803,0,-18.149999618530273,28.350000381469727,-68.8499984741211,2779096485
1.8068515602111817,0.4535498947143555,7.882064252471924,-3.2977061886054075,-0.7236637674060687,-0.2947734612840701,19.0,1804,0,-18.149999618530273,28.350000381469727,-68.8499984741211,2779096485
1.574506018066406,0.32095235519409177,8.919595027160645,-3.382575672482754,-0.7826382709180957,-0.30830474300527433,19.0,1805,0,-18.149999618530273,27.899999618530273,-69.5999984741211,2779096485
1.3227356948852538,0.04151437072753906,10.10973209838867,-3.453600054396101,-0.8315193739943785,-0.31721203142077303,19.0,1806,0,-18.149999618530273,27.899999618530273,-69.5999984741211,2779096485
0.9989330688476562,-0.3132664596557617,11.188119060516357,-3.497659051614549,-0.8667528351843284,-0.3289807332761348,18.799999237060547,1807,0,-18.149999618530273,27.899999618530273,-69.5999984741211,2779096485
0.7716931762695313,-0.6468400756835937,12.397751007843016,-3.5176954704382166,-0.8916710080159365,-0.3399614656914818,18.799999237060547,1808,0,-18.899999618530273,26.549999237060547,-69.30000305175781,2779096485
0.598032080078125,-0.9057694038391113,13.75926572113037,-3.5073522721518424,-0.9051732546235556,-0.34619709089348144,18.799999237060547,1809,0,-18.899999618530273,26.549999237060547,-69.30000305175781,2779096485
0.4607009742736816,-1.109538441467285,15.066154772949218,-3.458400335648953,-0.901862912121823,-0.3528032749849109,19.0,1810,0,-18.899999618530273,26.549999237060547,-69.30000305175781,2779096485
0.42689792022705075,-1.2558041816711425,16.49957707595825,-3.3685998625733515,-0.8841789766572017,-0.3531770962466536,19.0,1811,0,-18.899999618530273,26.549999237060547,-69.30000305175781,2779096485
0.40532651062011715,-1.341687306213379,17.984919520568848,-3.239812855251593,-0.8537518420957365,-0.3569909160069084,19.0,1812,0,-19.049999237060547,24.75,-69.75,2779096485
0.3773813102722168,-1.3704734977722168,19.36896495513916,-3.066958142174681,-0.8053578178636764,-0.3574884011530191,19.100000381469727,1813,0,-19.049999237060547,24.75,-69.75,2779096485
0.4203548919677734,-1.3972999061584472,20.719328983306884,-2.8581052012586428,-0.743112806081648,-0.35508257467770493,19.100000381469727,1814,0,-19.049999237060547,24.75,-69.75,2779096485
0.4648983039855957,-1.4453490432739258,21.91047127380371,-2.612708916721598,-0.6694276333098774,-0.3506714345206612,19.100000381469727,1815,0,-19.049999237060547,24.75,-69.75,2779096485
0.5219921340942383,-1.4319140441894531,22.98360660171509,-2.338373845135467,-0.5863504102285181,-0.33924259196547424,19.100000381469727,1816,0,-19.950000762939453,23.700000762939453,-70.6500015258789,2779096485
0.5662073890686035,-1.3072231903076172,23.937400730895995,-2.038658742008855,-0.4913708811587285,-0.3251366799798126,19.0,1817,0,-19.950000762939453,23.700000762939453,-70.6500015258789,2779096485
0.5778236923217773,-1.148183512878418,24.760055559539794,-1.718603473222534,-0.39094619969836153,-0.3084036461495775,19.0,1818,0,-19.950000762939453,23.700000762939453,-70.6500015258789,2779096485
0.5216759025573731,-0.985407787322998,25.357813352966307,-1.37724054564864,-0.28571136331546904,-0.29103601432545123,19.100000381469727,1819,0,-19.950000762939453,23.700000762939453,-70.6500015258789,2779096485
0.41757718353271484,-0.8184282272338866,25.814389709472657,-1.0263470168103979,-0.17781036314669083,-0.2715363090104814,19.200000762939453,1820,0,-19.049999237060547,22.950000762939453,-70.5,2779096485
0.2888130027770996,-0.5916519714355468,26.14903882675171,-0.6651050832058863,-0.0702141684204802,-0.2498109334088005,19.200000762939453,1821,0,-19.049999237060547,22.950000762939453,-70.5,2779096485
0.14363693237304687,-0.3734286964416504,26.375042055511475,-0.30797246705625136,0.03952479238827713,-0.228893640771129,19.200000762939453,1822,0,-19.049999237060547,22.950000762939453,-70.5,2779096485
0.0113850830078125,-0.146298974609375,26.539617149353028,0.04444908373643631,0.14732298788178208,-0.2034262708632991,19.200000762939453,1823,0,-19.049999237060547,22.950000762939453,-70.5,2779096485
-0.10094982452392577,0.08564689483642578,26.58204484939575,0.3839376985217213,0.25930787231720137,-0.18010155385367035,19.200000762939453,1824,0,-19.200000762939453,23.25,-69.75,2779096485
-0.2443468635559082,0.2725039192199707,26.45472814102173,0.703513778078495,0.3733357874530293,-0.15689588014395003,19.200000762939453,1825,0,-19.200000762939453,23.25,-69.75,2779096485
-0.3903436630249023,0.4005925704956055,26.204119638824462,0.9998340832078856,0.4839389839769945,-0.13387284602053223,19.100000381469727,1826,0,-19.200000762939453,23.25,-69.75,2779096485
-0.5803275253295899,0.43780792694091797,25.57948945465088,1.2756844801280525,0.5909132107506969,-0.110943575140549,19.0,1827,0,-19.200000762939453,23.25,-69.75,2779096485
-0.7181180809020996,0.3654451866149902,24.91783135757446,1.5220953291649042,0.6812441988276018,-0.08513479464121994,19.0,1828,0,-19.5,23.25,-70.05000305175781,2779096485
-0.8665650672912597,0.22820264358520506,24.007433586120605,1.7422487815619832,0.7549415089559569,-0.054832702149977416,19.0,1829,0,-19.5,23.25,-70.05000305175781,2779096485
-0.9510064018249511,0.1132061798095703,23.12095800704956,1.9325812348575335,0.8145295049103811,-0.023472036422216798,19.0,1830,0,-19.5,23.25,-70.05000305175781,2779096485
-0.9240244384765625,0.023662784576416015,22.198310534667968,2.087495230479283,0.8631585730807336,0.010766341291166229,19.0,1831,0,-19.5,23.25,-70.05000305175781,2779096485
-0.8900330062866211,-0.04692122344970703,21.140315740203857,2.2092642091656676,0.9057607146664763,0.043060524869416965,19.100000381469727,1832,0,-19.350000381469727,23.850000381469727,-70.05000305175781,2779096485
-0.8418220336914062,-0.1108445930480957,20.105685555267332,2.288604977315907,0.9423770954798761,0.07597454587131851,19.100000381469727,1833,0,-19.350000381469727,23.850000381469727,-70.05000305175781,2779096485
-0.8607366722106933,-0.14034463272094727,19.119454010772703,2.3284764400388003,0.9791381392026949,0.11047339405332672,19.100000381469727,1834,0,-19.350000381469727,23.850000381469727,-70.05000305175781,2779096485
-0.8233388442993164,-0.14353412628173828,18.329744534301756,2.337769780283264,1.0184633476423504,0.14715048828126037,19.100000381469727,1835,0,-19.350000381469727,23.850000381469727,-70.05000305175781,2779096485
-0.8077773666381836,-0.1779481475830078,17.59537647399902,2.3258457096109746,1.0601555070635746,0.17864227474438996,19.0,1836,0,-18.899999618530273,25.350000381469727,-69.44999694824219,2779096485
-0.7615560096740722,-0.19143088607788086,16.891600814819334,2.2888798421701253,1.0987836996717193,0.20950847801385636,19.0,1837,0,-18.899999618530273,25.350000381469727,-69.44999694824219,2779096485
-0.6209663619995117,-0.2176624397277832,16.43464029998779,2.2334199456140365,1.1356364493460447,0.23211666487922072,19.100000381469727,1838,0,-18.899999618530273,25.350000381469727,-69.44999694824219,2779096485
-0.48064195404052734,-0.23958660507202148,16.087499756622314,2.1627084584950125,1.1650612033696062,0.24719925124054062,19.100000381469727,1839,0,-18.899999618530273,25.350000381469727,-69.44999694824219,2779096485
-0.3350220230102539,-0.2816387825012207,15.923506320953368,2.085656477548885,1.1800112508622864,0.25212251727168716,19.100000381469727,1840,0,-18.75,25.5,-69.75,2779096485
-0.4559939132690429,-0.7052458610534668,17.4239402885437,1.746505538271696,1.136571518487859,0.15739089520816665,19.0,1845,0,-18.0,26.25,-70.05000305175781,2779096485
-0.6748817268371582,-0.8255099594116211,18.37198221130371,1.7230436817826762,1.1316446505313629,0.12906088680638061,19.0,1846,0,-18.0,26.25,-70.05000305175781,2779096485
-0.9229763023376465,-0.9000329734802246,19.363936428833007,1.7196261936531232,1.1403500114164968,0.09744451766831329,19.0,1847,0,-17.25,26.399999618530273,-69.44999694824219,2779096485
-1.1767625595092772,-0.9670293479919433,20.457469046020506,1.73568438246777,1.1646362094678693,0.0686893688909314,19.0,1848,0,-17.25,26.399999618530273,-69.44999694824219,2779096485
-1.398220637512207,-1.0125122581481933,21.571451626586914,1.774955868290705,1.2047178422046443,0.039982836118914795,18.899999618530273,1849,0,-17.25,26.399999618530273,-69.44999694824219,2779096485
-1.599183779144287,-1.0569003768920897,22.764041202545165,1.8398477425987516,1.2632567724075767,0.014563343189252778,18.899999618530273,1850,0,-17.25,26.399999618530273,-69.44999694824219,2779096485
-1.760387244415283,-1.1065614013671874,23.92936196746826,1.9406742151700176,1.3406309292643626,-0.009506233340541383,18.899999618530273,1851,0,-16.799999237060547,27.299999237060547,-69.75,2779096485
-1.8412896942138672,-1.1300994354248046,24.95804532470703,2.0718277806570873,1.4338988114238074,-0.032923568434343874,18.899999618530273,1852,0,-16.799999237060547,27.299999237060547,-69.75,2779096485
-1.8509046058654786,-1.1806251525878906,26.031136053466795,2.2355825056412493,1.5440945376458879,-0.05234937768747452,18.899999618530273,1853,0,-16.799999237060547,27.299999237060547,-69.75,2779096485
-1.8162811965942383,-1.1864215843200683,26.835702841949463,2.433451445111725,1.6669952599192377,-0.07257082628450669,19.0,1854,0,-16.799999237060547,27.299999237060547,-69.75,2779096485
-1.471943147277832,-0.9140216300964356,27.37473360900879,2.66599940892652,1.7954669889175143,-0.09410541968490814,19.200000762939453,1855,0,-16.799999237060547,28.200000762939453,-69.1500015258789,2779096485
-1.1227938850402832,-0.7055516624450683,27.608933025360106,2.9149183831133554,1.9264534343894275,-0.1376211986237401,19.200000762939453,1856,0,-16.799999237060547,28.200000762939453,-69.1500015258789,2779096485
-1.2609088218688964,-1.1786004333496094,27.69092821044922,3.190056717341956,2.0461995491626195,-0.17539462971218964,19.200000762939453,1857,0,-16.799999237060547,28.200000762939453,-69.1500015258789,2779096485
-1.4604324165344238,-1.721635179901123,27.61291820068359,3.4944810682180836,2.1471748258587713,-0.20406128830505904,19.0,1858,0,-16.799999237060547,28.200000762939453,-69.1500015258789,2779096485
-1.7282025825500489,-2.3762184608459473,27.354920071411133,3.8228066505547558,2.229860404472915,-0.21798657139102737,19.0,1859,0,-16.049999237060547,29.399999618530273,-69.0,2779096485
-1.9297858505249024,-2.9905574935913086,26.79391313781738,4.1738029041734395,2.289675548093054,-0.22149891466005434,19.0,1860,0,-16.049999237060547,29.399999618530273,-69.0,2779096485
-2.2042768058776856,-3.705856893157959,25.925322304534912,4.533685134261144,2.323677357208431,-0.21173297650969589,19.0,1861,0,-16.049999237060547,29.399999618530273,-69.0,2779096485
-2.3096952560424806,-4.578271514892578,24.577128419494628,4.892940675943341,2.331855385569742,-0.19952019254561523,19.0,1862,0,-16.049999237060547,29.399999618530273,-69.0,2779096485
-2.4455287200927733,-5.418309507751465,22.661214363098143,5.204598511843453,2.316760482088465,-0.19801447456514573,19.0,1863,0,-15.0,30.299999237060547,-68.55000305175781,2779096485
-2.4388600067138673,-5.492216133880615,21.268448915863036,5.505436789836281,2.268223292975089,-0.19273177499994676,19.0,1864,0,-15.0,30.299999237060547,-68.55000305175781,2779096485
-2.330983930206299,-5.529328198242188,19.854468366241456,5.79344667420958,2.184369312361827,-0.18918303963487396,19.0,1865,0,-15.0,30.299999237060547,-68.55000305175781,2779096485
-2.2127503829956052,-5.394202002716065,18.141062645721433,6.06021239621316,2.0788966157478086,-0.18222517846601363,19.0,1866,0,-15.0,30.299999237060547,-68.55000305175781,2779096485
-2.0550401191711427,-5.188473555755615,16.469875984954832,6.291320801626411,1.9571362723611994,-0.17952118447710327,19.100000381469727,1867,0,-13.350000381469727,32.099998474121094,-67.5,2779096485
-1.7529547004699706,-4.870795518493652,14.724806623840331,6.483875629546846,1.821411217788954,-0.17790213567722427,19.100000381469727,1868,0,-13.350000381469727,32.099998474121094,-67.5,2779096485
-1.4330055458068847,-4.502418825531006,12.967522777557372,6.634199979982814,1.674929722226827,-0.17854397746923065,19.100000381469727,1869,0,-13.350000381469727,32.099998474121094,-67.5,2779096485
-0.8763685813903809,-4.256525160217285,11.116222499084472,6.740717268237723,1.5197149691673388,-0.1850702600706041,19.100000381469727,1870,0,-13.350000381469727,32.099998474121094,-67.5,2779096485
-0.6652342910766601,-4.058639135742188,9.308568453216552,6.797500169951049,1.3502910799990473,-0.18530948517177917,18.899999618530273,1871,0,-12.75,35.099998474121094,-66.1500015258789,2779096485
-0.7650170234680176,-3.8162860374450682,8.021042162322997,6.8053671544149825,1.1910815653581852,-0.17789686927620482,18.899999618530273,1872,0,-12.75,35.099998474121094,-66.1500015258789,2779096485
-0.8145969245910645,-3.4662501007080078,6.487944082641602,6.790518886280563,1.0369519305931985,-0.16326978332669906,19.0,1873,0,-12.75,35.099998474121094,-66.1500015258789,2779096485
-1.0943540565490721,-3.2758628646850583,5.056976490020752,6.731364166658809,0.8961510840973231,-0.13866644939699663,19.0,1874,0,-12.75,35.099998474121094,-66.1500015258789,2779096485
-1.421380233001709,-3.0886982818603514,3.7374523078918456,6.64281472681248,0.7718909312811766,-0.09328715678770187,19.0,1875,0,-12.0,37.349998474121094,-65.8499984741211,2779096485
-2.0022620513916016,-3.031967600250244,2.400369331359863,6.516841029583725,0.6643738723862138,-0.02646964391929062,19.0,1876,0,-12.0,37.349998474121094,-65.8499984741211,2779096485
-2.3474932052612303,-2.885339421844482,1.0169976692199707,6.361902333143035,0.5767691756142928,0.06419007144450913,19.0,1877,0,-12.0,37.349998474121094,-65.8499984741211,2779096485
-2.9177636405944822,-2.825000582885742,-0.1877755126953125,6.173140692142451,0.5009563435411553,0.17068098774690538,19.0,1878,0,-12.0,37.349998474121094,-65.8499984741211,2779096485
-2.9843023971557616,-2.6301426651000974,-1.0691235725402832,5.982528640223877,0.4285793487773552,0.2922856493951613,19.0,1879,0,-11.699999809265137,39.599998474121094,-64.19999694824219,2779096485
-2.904710182952881,-2.3486114738464354,-2.184310816192627,5.779723225443339,0.34102902709661714,0.41135687254744613,18.899999618530273,1880,0,-11.699999809265137,39.599998474121094,-64.19999694824219,2779096485
-3.0549446121215817,-2.063379300689697,-2.7123068634033203,5.559646924822509,0.25023342393912995,0.5359342744262682,18.899999618530273,1881,0,-11.699999809265137,39.599998474121094,-64.19999694824219,2779096485
-3.1042786010742187,-1.6505613288879395,-4.0930637367248535,5.341656997848531,0.16351520693526872,0.6542429946162871,18.899999618530273,1882,0,-11.699999809265137,39.599998474121094,-64.19999694824219,2779096485
-3.1409373092651367,-1.2693277061462402,-4.720847750091552,5.101956475816821,0.06938390132474288,0.7748282847590015,19.0,1883,0,-11.100000381469727,40.650001525878906,-63.0,2779096485
-2.9190552963256833,-0.8366910377502441,-5.519741773223877,4.85884513021614,-0.02488050907615036,0.8939757076074526,19.0,1884,0,-11.100000381469727,40.650001525878906,-63.0,2779096485
-2.7333063720703126,-0.43562675552368163,-6.503765715789795,4.603027510246875,-0.1339212756046225,1.008601222771982,19.0,1885,0,-11.100000381469727,40.650001525878906,-63.0,2779096485
-2.900141480255127,-0.10669160079956054,-7.40125007019043,4.343299504296893,-0.2492652650209987,1.1210895445185074,19.0,1886,0,-11.399999618530273,42.75,-61.650001525878906,2779096485
-2.658508622741699,0.28790311279296876,-8.08013992614746,4.083333884458184,-0.3728023696061577,1.2303480977015269,19.0,1887,0,-11.399999618530273,42.75,-61.650001525878906,2779096485
-2.3137759475708006,0.6975195159912109,-8.592946504211426,3.825171644112937,-0.5191234496611264,1.3331598836148733,19.0,1888,0,-11.399999618530273,42.75,-61.650001525878906,2779096485
-2.024768734741211,1.064159122467041,-9.32756993484497,3.571906883741759,-0.6693142692009546,1.4255549480225567,19.0,1889,0,-11.399999618530273,42.75,-61.650001525878906,2779096485
-1.7872638221740722,1.3737919288635254,-9.539226330566406,3.3198719445219176,-0.8232903394406401,1.5073646995129277,18.799999237060547,1890,0,-12.600000381469727,44.400001525878906,-59.849998474121094,2779096485
-1.285898141479492,1.654324031829834,-10.012891526794434,3.0820087905768476,-0.9774844160456613,1.5750970681306187,18.799999237060547,1891,0,-12.600000381469727,44.400001525878906,-59.849998474121094,2779096485
-0.8100093429565429,1.9187342330932617,-10.167695668029785,2.849657987234099,-1.1320866021112244,1.6244331789339173,18.899999618530273,1892,0,-12.600000381469727,44.400001525878906,-59.849998474121094,2779096485
-0.6247000549316406,2.1481797088623047,-10.553783046722412,2.6143569540297436,-1.2756470960045074,1.6607113183174933,19.100000381469727,1893,0,-12.600000381469727,44.400001525878906,-59.849998474121094,2779096485
-0.3188698028564453,2.341593930053711,-10.802602087402343,2.3918708521656997,-1.393794255528107,1.6792833913679417,19.100000381469727,1894,0,-13.050000190734863,44.70000076293945,-59.849998474121094,2779096485
0.2140556655883789,2.4728742805480954,-11.000045597076415,2.1631780603447015,-1.5080718553302195,1.6796647027701987,19.100000381469727,1895,0,-13.050000190734863,44.70000076293945,-59.849998474121094,2779096485
0.6720121658325195,2.5474201736450195,-11.335279438018798,1.9158292526362728,-1.5980754210691546,1.6555803723280669,19.100000381469727,1896,0,-13.050000190734863,44.70000076293945,-59.849998474121094,2779096485
0.6935343032836914,2.4913850219726563,-12.039784609222412,1.6016363736856443,-1.66450451855315,1.5935291121719128,19.100000381469727,1897,0,-13.050000190734863,44.70000076293945,-59.849998474121094,2779096485
0.8330805999755859,2.5894653602600095,-12.960157151031494,1.2463675508383845,-1.7330299232747945,1.4933343414068725,19.100000381469727,1898,0,-13.5,45.150001525878906,-58.650001525878906,2779096485
0.7610974197387695,2.839034324645996,-13.263783128356932,0.9214649893483919,-1.8445101520029175,1.3653927479094463,19.299999237060547,1899,0,-13.5,45.150001525878906,-58.650001525878906,2779096485
0.6861999298095703,3.198148338317871,-12.851898448944091,0.6694882401979685,-1.9703732348365561,1.2315408676244517,19.299999237060547,1900,0,-13.5,45.150001525878906,-58.650001525878906,2779096485
0.5557135787963867,3.5007685356140135,-12.168089489746093,0.47673441422434737,-2.082087016132771,1.1026820614801975,19.299999237060547,1901,0,-13.5,45.150001525878906,-58.650001525878906,2779096485
0.4234945899963379,3.682085246276855,-11.351292178344726,0.33774561581122287,-2.1721064742854024,0.9851442398677234,19.200000762939453,1902,0,-14.850000381469727,45.150001525878906,-58.650001525878906,2779096485
0.45884721221923824,3.879055137634277,-11.392973244476318,0.19966116697694977,-2.220052514877773,0.8911749210293884,19.0,1903,0,-14.850000381469727,45.150001525878906,-58.650001525878906,2779096485
0.5902210975646972,4.276494963073731,-11.519622199249268,0.016480333134036865,-2.2369595596524383,0.8014234567754103,19.0,1904,0,-14.850000381469727,45.150001525878906,-58.650001525878906,2779096485
0.7874825096130371,4.716171680450439,-10.42055506286621,-0.09700878456955445,-2.2608620760882,0.7145326269866819,19.0,1905,0,-14.850000381469727,45.150001525878906,-58.650001525878906,2779096485
1.0083664436340332,4.557148900604248,-9.674465201568603,-0.1600588832593866,-2.246375664964408,0.6410029295582818,19.0,1906,0,-15.75,45.599998474121094,-58.04999923706055,2779096485
1.2404971397399902,4.399673184204102,-9.233174465942383,-0.20572429257842773,-2.2074599241974413,0.5894182985462761,19.0,1907,0,-15.75,45.599998474121094,-58.04999923706055,2779096485
1.459420206451416,4.3338470420837405,-8.835002773284911,-0.2177462810254236,-2.1573863774354645,0.5529763947304938,19.0,1908,0,-15.75,45.599998474121094,-58.04999923706055,2779096485
1.6065550506591797,4.413113566589355,-8.608944365692139,-0.22535236225705718,-2.09917590820332,0.5256338997699281,19.0,1909,0,-15.75,45.599998474121094,-58.04999923706055,2779096485
1.7688537933349608,4.584436141967774,-8.778967958068847,-0.22802270720582565,-2.0463713763149705,0.4986585282210097,19.0,1910,0,-16.799999237060547,45.45000076293945,-58.04999923706055,2779096485
1.9908394721984863,4.72872572479248,-9.122808687591553,-0.22873136105122024,-2.007254973019148,0.4656583606163388,19.0,1911,0,-16.799999237060547,45.45000076293945,-58.04999923706055,2779096485
2.217061734008789,4.751808197021484,-9.687219736480712,-0.23191644842984452,-1.9913316133916625,0.4303932410991481,19.0,1912,0,-16.799999237060547,45.45000076293945,-58.04999923706055,2779096485
2.4196417724609374,4.655997929382324,-10.140383192443847,-0.24625428179744185,-1.9946105305927482,0.3930583594022908,19.0,1913,0,-16.799999237060547,45.45000076293945,-58.04999923706055,2779096485
2.6470317245483397,4.676210130310058,-10.56099846420288,-0.27224118782505674,-2.0010339219661133,0.357770955884832,19.0,1914,0,-16.950000762939453,45.75,-58.95000076293945,2779096485
2.892849089050293,4.831486992645264,-10.873811418151854,-0.30879921212147127,-2.004881244292651,0.32060995197435105,19.0,1915,0,-16.950000762939453,45.75,-58.95000076293945,2779096485
3.1670685241699217,5.135719039916992,-11.173908679199219,-0.3555209842533409,-1.994900415675411,0.2750157023191478,19.0,1916,0,-16.950000762939453,45.75,-58.95000076293945,2779096485
3.4234503547668456,5.550434550476074,-11.409910940551757,-0.4173173199738017,-1.964061456543709,0.2252358556180696,19.0,1917,0,-16.950000762939453,45.75,-58.95000076293945,2779096485
3.6320814849853513,6.001683345794677,-11.724911645507811,-0.4972207208478705,-1.906502749378563,0.16673683954170043,19.200000762939453,1918,0,-18.75,44.54999923706055,-57.75,2779096485
3.7704523902893063,6.428336101531983,-12.063474347686768,-0.6005910249011902,-1.830716136126177,0.09575915615774704,19.200000762939453,1919,0,-18.75,44.54999923706055,-57.75,2779096485
3.9056415405273435,6.787519499969482,-12.263699715423584,-0.713998050664744,-1.730681827473614,0.021198788762958373,19.200000762939453,1920,0,-18.75,44.54999923706055,-57.75,2779096485
3.9217877792358395,7.076605294036865,-12.727198024749756,-0.8523244809719014,-1.6171653790795235,-0.058482983846717074,19.200000762939453,1921,0,-18.75,44.54999923706055,-57.75,2779096485
3.9715936294555663,7.342078846740723,-13.287050576782226,-1.0121477477133651,-1.496863016511172,-0.13965301075813386,19.200000762939453,1922,0,-18.75,44.099998474121094,-57.0,2779096485
4.099471883392334,7.604809944152832,-13.988855162811278,-1.201821228433315,-1.3790737458882032,-0.22804404578391327,19.200000762939453,1923,0,-18.75,44.099998474121094,-57.0,2779096485
4.258856204223632,7.8418077423095705,-14.850341609191894,-1.4201299690770979,-1.2681041183744697,-0.3202059903871785,19.200000762939453,1924,0,-18.75,44.099998474121094,-57.0,2779096485
4.362255056762695,8.002566636657715,-15.715298004150391,-1.667633053706415,-1.1734709400599674,-0.4212625134697273,19.0,1925,0,-19.049999237060547,43.349998474121094,-57.29999923706055,2779096485
4.316994357299804,8.07046037750244,-16.4656837020874,-1.944758778542732,-1.0965390809939823,-0.5240542857276195,19.0,1926,0,-19.049999237060547,43.349998474121094,-57.29999923706055,2779096485
4.168187998199463,8.05860975112915,-17.06409280014038,-2.24802486074762,-1.0383850374870458,-0.6265081893982379,19.0,1927,0,-19.049999237060547,43.349998474121094,-57.29999923706055,2779096485
3.997537849426269,8.016437384033203,-17.50778860015869,-2.575522033543402,-0.9949652322153382,-0.7281923662821832,19.0,1928,0,-19.049999237060547,43.349998474121094,-57.29999923706055,2779096485
3.917323490142822,7.981914986419677,-17.823628202819823,-2.9194677213563165,-0.9708294894487157,-0.8268544412450971,19.0,1929,0,-18.600000381469727,43.5,-58.20000076293945,2779096485
3.8650594154357907,7.938662482452393,-17.936375007629394,-3.280588980474763,-0.9558380431171747,-0.9224369632447584,19.0,1930,0,-18.600000381469727,43.5,-58.20000076293945,2779096485
3.789258316040039,7.90684945526123,-17.822302041625974,-3.6523394414049846,-0.9491001124475245,-1.0165049455429,19.0,1931,0,-18.600000381469727,43.5,-58.20000076293945,2779096485
3.6449370689392087,7.8005763687133785,-17.510370864868165,-4.021807406849127,-0.9481106815303324,-1.1007825884773632,19.0,1932,0,-18.600000381469727,43.5,-58.20000076293945,2779096485
3.4890866981506345,7.61505249633789,-17.122049042510987,-4.400971062912456,-0.9470434596782337,-1.174614947503668,19.0,1933,0,-19.049999237060547,43.20000076293945,-59.099998474121094,2779096485
3.2089916519165036,7.223298670196533,-16.579106335449218,-4.781372716031611,-0.9422744439363645,-1.234875331707592,19.0,1934,0,-19.049999237060547,43.20000076293945,-59.099998474121094,2779096485
2.8426049110412595,6.655239724731445,-15.79383011932373,-5.167367293691314,-0.9375758288574276,-1.2814448043156694,19.0,1935,0,-19.049999237060547,43.20000076293945,-59.099998474121094,2779096485
2.3473079673767088,5.831380046081542,-14.57365834197998,-5.556970667656161,-0.9259430880326828,-1.303218702712078,19.0,1936,0,-19.049999237060547,43.20000076293945,-59.099998474121094,2779096485
1.8771549263000489,4.916664082336426,-12.886604514312744,-5.9268842265529305,-0.9015018274279061,-1.3087186629575127,19.0,1937,0,-18.899999618530273,42.45000076293945,-60.150001525878906,2779096485
1.59485523147583,3.9451160888671875,-10.607896509552,-6.271804564739088,-0.8567673127456993,-1.2941868116479336,19.0,1938,0,-18.899999618530273,42.45000076293945,-60.150001525878906,2779096485
1.5410077560424804,2.9910457290649415,-7.686524300384521,-6.575952426232744,-0.7818489033185182,-1.2698529563291816,19.0,1939,0,-18.899999618530273,42.45000076293945,-60.150001525878906,2779096485
1.6338642364501952,2.0579764106750487,-4.102141103363037,-6.835711777588541,-0.6653404800130208,-1.2327824732635304,19.0,1940,0,-18.899999618530273,42.45000076293945,-60.150001525878906,2779096485
1.9007725509643554,1.1370472206115723,0.1743390556335449,-7.047390099375142,-0.5117214464624231,-1.1943800101878297,18.899999618530273,1941,0,-19.350000381469727,40.04999923706055,-61.20000076293945,2779096485
2.2150921936035157,0.3097770713806152,4.865066191101074,-7.182855875243341,-0.31370575350108704,-1.1602907295470501,18.899999618530273,1942,0,-19.350000381469727,40.04999923706055,-61.20000076293945,2779096485
2.588602648925781,-0.40828321380615235,10.343347576141356,-7.247414255206174,-0.08537343384695922,-1.1266446188823225,19.0,1943,0,-19.350000381469727,40.04999923706055,-61.20000076293945,2779096485
2.9010352951049803,-1.032505126953125,16.438653102111815,-7.217459465550302,0.16998620231279205,-1.1053720938471892,19.0,1944,0,-19.350000381469727,40.04999923706055,-61.20000076293945,2779096485
3.184438865661621,-1.4618416450500489,23.35179742126465,-7.076395392214093,0.4571501735190567,-1.0884916207621178,19.0,1945,0,-19.5,38.400001525878906,-63.599998474121094,2779096485
3.421838579559326,-1.6365541297912598,30.608315393829344,-6.81324814044825,0.7678108020716468,-1.077097545774723,19.0,1946,0,-19.5,38.400001525878906,-63.599998474121094,2779096485
3.6250222579956053,-1.7251041564941405,38.34463051605224,-6.410853124486663,1.099852106630495,-1.0740469480302235,19.100000381469727,1947,0,-19.5,38.400001525878906,-63.599998474121094,2779096485
3.624438394165039,-1.9072301940917968,45.60690514373779,-5.86154316352481,1.4265505374997272,-1.078189847946215,19.100000381469727,1948,0,-19.5,38.400001525878906,-63.599998474121094,2779096485
3.4451815437316893,-2.1453468589782716,53.06115934295654,-5.15449376614952,1.73142253912041,-1.0714870909764203,19.100000381469727,1949,0,-19.5,36.0,-64.94999694824219,2779096485
2.8806377067565916,-2.2537243675231933,60.45976785736084,-4.2833042577513725,2.0056335806375256,-1.0595432663068811,19.100000381469727,1950,0,-19.5,36.0,-64.94999694824219,2779096485
1.982703547668457,-1.7008555267333985,67.75693745193482,-3.23910798309492,2.2328125451525906,-1.048126121686702,19.100000381469727,1951,0,-19.5,36.0,-64.94999694824219,2779096485
1.0593701530456543,-2.254583265686035,74.2174003074646,-2.0402071837508187,2.4318986158118956,-1.034431874481613,19.100000381469727,1952,0,-19.5,36.0,-64.94999694824219,2779096485
0.30188750762939454,-3.8741632873535155,77.46575985107421,-0.7848236608935962,2.590084278178713,-0.9891940955937698,19.100000381469727,1953,0,-18.450000762939453,35.54999923706055,-65.8499984741211,2779096485
1.0765127136230468,-4.770183084869385,77.86279349899291,0.5570100184898077,2.7438754917505035,-0.8926336408748438,19.0,1954,0,-18.450000762939453,35.54999923706055,-65.8499984741211,2779096485
2.0008557014465334,-4.595409851074218,77.86150827331542,1.8847342438833246,2.797085822807165,-0.8154078287476587,19.0,1955,0,-18.450000762939453,35.54999923706055,-65.8499984741211,2779096485
3.6921024475097655,-5.327888821411133,77.85277345657349,3.1497089748929863,2.5651014770857956,-0.7357841996020829,19.100000381469727,1956,0,-18.450000762939453,35.54999923706055,-65.8499984741211,2779096485
5.683151905822753,-6.2217541023254395,77.84230510482787,4.309442710959777,2.150316696791103,-0.6118761100217226,19.100000381469727,1957,0,-17.100000381469727,34.95000076293945,-65.69999694824219,2779096485
7.14234792022705,-7.791160452270508,74.80728894882202,5.242546133639705,1.6492583608388014,-0.39932801980278776,19.100000381469727,1958,0,-17.100000381469727,34.95000076293945,-65.69999694824219,2779096485
4.759904195404053,-4.928748246765137,69.78067913513183,5.509473576099368,1.1711494958432125,-0.14009195962388687,19.100000381469727,1959,0,-17.100000381469727,34.95000076293945,-65.69999694824219,2779096485
3.4468863677978514,-3.379532452392578,74.79744928436278,5.661180506605748,0.9245741766364705,-0.06741493979164306,19.0,1960,0,-17.100000381469727,34.95000076293945,-65.69999694824219,2779096485
3.0448314086914063,-1.9868905967712402,75.07578675765991,5.840502746292887,1.0203502039196073,-0.053164165159482114,19.0,1961,0,-16.649999618530273,36.45000076293945,-64.5,2779096485
1.4329044219970704,0.4374820129394531,74.0244541343689,5.816033156312209,1.18848619505149,-0.09531741097286865,19.0,1962,0,-16.649999618530273,36.45000076293945,-64.5,2779096485
0.058558349609375,1.3858095870971678,71.61910566101074,5.548630872233448,1.408641311924239,-0.21594033823942993,18.899999618530273,1963,0,-16.649999618530273,36.45000076293945,-64.5,2779096485
-0.5813208938598633,1.5507391563415527,69.59666311035156,5.20254011470366,1.7025977153914877,-0.3479549369905188,18.899999618530273,1964,0,-16.649999618530273,36.45000076293945,-64.5,2779096485
-0.6260208702087402,0.8228042152404785,67.39716050720214,4.79646698035423,2.055713425775437,-0.4592356483490468,18.899999618530273,1965,0,-16.950000762939453,38.400001525878906,-64.05000305175781,2779096485
-0.4778638717651367,-0.2930861473083496,64.00640805969238,4.353374941711208,2.408408935947578,-0.5352557143009846,19.0,1966,0,-16.950000762939453,38.400001525878906,-64.05000305175781,2779096485
-0.522439845275879,-1.0664928955078126,60.61989817657471,3.9316947114273724,2.715250371812451,-0.58756069043549,19.0,1967,0,-16.950000762939453,38.400001525878906,-64.05000305175781,2779096485
-0.7426238380432129,-1.8234893241882324,58.16457981185913,3.575466424882881,2.9408733112344008,-0.6291237131763439,19.0,1968,0,-15.149999618530273,39.900001525878906,-63.75,2779096485
-1.5886666038513184,-2.619803512573242,55.402660747528074,3.3635383984562877,3.119856750227891,-0.669302005344219,19.0,1969,0,-15.149999618530273,39.900001525878906,-63.75,2779096485
-2.491490071105957,-3.5582741508483884,53.269818137359614,3.2864564636060054,3.241336889122333,-0.6839467746832414,19.0,1970,0,-15.149999618530273,39.900001525878906,-63.75,2779096485
-3.3373641975402832,-4.465673834991455,50.465148188018794,3.3185981079759674,3.3274163536010315,-0.6634464931219942,19.0,1971,0,-15.149999618530273,39.900001525878906,-63.75,2779096485
-3.8931406562805173,-5.343486823272705,47.060957675933835,3.40578081356026,3.3696125428867005,-0.600790835218503,19.100000381469727,1972,0,-13.199999809265137,42.0,-62.70000076293945,2779096485
-4.340097315979004,-6.396802220916748,43.41854660873413,3.553561492303838,3.3415440635600655,-0.49210564729843187,19.200000762939453,1973,0,-13.199999809265137,42.0,-62.70000076293945,2779096485
-4.573512789154052,-7.368138059997558,39.98653998336792,3.7739296487465235,3.230454673692934,-0.35748912020650847,19.200000762939453,1974,0,-13.199999809265137,42.0,-62.70000076293945,2779096485
-4.563479662322998,-8.100878419494629,36.693447677612305,4.0742146283950795,3.04361413722099,-0.21102470216475402,19.200000762939453,1975,0,-13.199999809265137,42.0,-62.70000076293945,2779096485
-4.3957015419006344,-8.510456578826904,33.52258396377563,4.443745138176992,2.7923138842460196,-0.07553021076229782,19.100000381469727,1976,0,-12.449999809265137,42.0,-62.25,2779096485
-4.209875569152832,-8.654658421325683,30.70538980255127,4.859190735286327,2.487986911854481,0.04179401867431717,19.100000381469727,1977,0,-12.449999809265137,42.0,-62.25,2779096485
-3.847962014770508,-8.668298471832275,27.980745124053954,5.3079970187725225,2.151749337631763,0.13883336301717025,19.100000381469727,1978,0,-12.449999809265137,42.0,-62.25,2779096485
-3.682899021911621,-8.791636248016356,25.560978563690185,5.763716136031757,1.803942971739536,0.21668891286929046,19.0,1979,0,-12.449999809265137,42.0,-62.25,2779096485
-3.49932151184082,-9.027961806488037,23.64051509475708,6.200422966373281,1.4603011506049115,0.2875406287345488,19.0,1980,0,-11.100000381469727,44.25,-60.900001525878906,2779096485
-3.3945857315063477,-9.345233441925048,22.02983071594238,6.606421312501912,1.139304494327133,0.3551601791913365,19.0,1981,0,-11.100000381469727,44.25,-60.900001525878906,2779096485
-3.123993257904053,-9.551795926666259,20.556706270599364,6.969992007358223,0.8480228966034479,0.4186581017311934,19.0,1982,0,-11.100000381469727,44.25,-60.900001525878906,2779096485
-2.8086967330932615,-9.936556732940673,19.27416588821411,7.287205030806495,0.5866433845780243,0.4794054649107999,19.0,1983,0,-11.100000381469727,44.25,-60.900001525878906,2779096485
-2.431571279144287,-10.356794575500487,18.03282431793213,7.550001104837608,0.36390765131091785,0.5428318549442688,19.0,1984,0,-10.800000190734863,46.04999923706055,-58.650001525878906,2779096485
-2.0621042808532715,-10.827649688720703,16.977079107666015,7.750354007929244,0.17964627315264464,0.6055279596065376,19.100000381469727,1985,0,-10.800000190734863,46.04999923706055,-58.650001525878906,2779096485
-1.7325764770507812,-11.231759573364258,15.937419499206543,7.882567464917562,0.037725693926237945,0.6694865823802013,19.100000381469727,1986,0,-10.800000190734863,46.04999923706055,-58.650001525878906,2779096485
-1.484308514404297,-11.608364791107178,14.87046838760376,7.952927847538786,-0.059756161260301664,0.7325082185360788,19.100000381469727,1987,0,-10.800000190734863,46.04999923706055,-58.650001525878906,2779096485
-1.340364247894287,-11.931376894378662,13.633848233795165,7.965220652835171,-0.12416359991148926,0.7906343055096643,19.100000381469727,1988,0,-10.949999809265137,47.70000076293945,-56.70000076293945,2779096485
-1.2465938026428223,-12.15471714630127,12.432663246154785,7.926102571747873,-0.16292767365541855,0.8512940640058146,19.0,1989,0,-10.949999809265137,47.70000076293945,-56.70000076293945,2779096485
-1.203482984161377,-12.304620053863525,11.266486835479736,7.84815435720626,-0.17812228588722276,0.9106490333664584,19.0,1990,0,-10.949999809265137,47.70000076293945,-56.70000076293945,2779096485
-1.1784942626953125,-12.428256453704833,10.209146373748778,7.7437899417301645,-0.1753539699005263,0.9716641041549027,19.100000381469727,1991,0,-10.949999809265137,47.70000076293945,-56.70000076293945,2779096485
-1.1726283714294434,-12.534832388305663,9.209932176971435,7.624718964920279,-0.15864382593970305,1.028787657458823,19.100000381469727,1992,0,-11.25,49.95000076293945,-54.29999923706055,2779096485
-1.1924538719177247,-12.648182496643066,8.281881440734862,7.5015217329511,-0.13467852548167436,1.0870759509153878,19.100000381469727,1993,0,-11.25,49.95000076293945,-54.29999923706055,2779096485
-1.2304288719177245,-12.769060665130615,7.3519323059082025,7.38092825358809,-0.10622862156843689,1.1470585074984012,19.100000381469727,1994,0,-11.25,49.95000076293945,-54.29999923706055,2779096485
-1.238942674255371,-12.872193305969239,6.48097046508789,7.2715189921200185,-0.0818685674026413,1.2113617832621688,19.0,1995,0,-11.25,49.95000076293945,-54.29999923706055,2779096485
-1.2408893356323243,-12.972286288452148,5.64141409072876,7.174162531872544,-0.057737651615461426,1.275625690847393,19.0,1996,0,-11.699999809265137,51.45000076293945,-52.349998474121094,2779096485
-1.1944614318847655,-12.938642938995361,4.807388347625732,7.094375138294762,-0.04109612399965256,1.3435668912405274,19.0,1997,0,-11.699999809265137,51.45000076293945,-52.349998474121094,2779096485
-1.0620419525146485,-12.81373738861084,4.0703580207824706,7.033287103550854,-0.029985462613516235,1.4131827405788167,19.0,1998,0,-11.699999809265137,51.45000076293945,-52.349998474121094,2779096485
-0.867932201385498,-12.653342240905761,3.282931175994873,6.991860581130734,-0.024355932924037017,1.4795806724203695,19.0,1999,0,-11.699999809265137,51.45000076293945,-52.349998474121094,2779096485
-0.6337829917907715,-12.484617893218994,2.425446241760254,6.968523027684739,-0.024273787720778046,1.5457541463888902,19.0,2000,0,-12.0,53.400001525878906,-50.099998474121094,2779096485
-0.3521981170654297,-12.275899658203125,1.5087638031005859,6.968254667601438,-0.026194918881028748,1.6065187069311175,19.200000762939453,2001,0,-12.0,53.400001525878906,-50.099998474121094,2779096485
-0.054249054718017574,-12.0543829246521,0.46584038162231445,6.9869155171262145,-0.0256629924043573,1.6667509947857342,19.200000762939453,2002,0,-12.0,53.400001525878906,-50.099998474121094,2779096485
0.2760365234375,-11.736789001464844,-0.7539175170898438,7.0211095532077525,-0.021857195416831208,1.7206699663719849,19.200000762939453,2003,0,-12.0,53.400001525878906,-50.099998474121094,2779096485
0.5960665023803711,-11.355233689117432,-2.344536763763428,7.058245356956592,-0.009955055875968018,1.7628660025258922,19.100000381469727,2004,0,-12.600000381469727,53.400001525878906,-46.95000076293945,2779096485
0.9221870506286621,-10.98646255722046,-4.0773765739440915,7.094000305031812,-0.0009553491133760071,1.7972030570148874,19.0,2005,0,-12.600000381469727,53.400001525878906,-46.95000076293945,2779096485
1.2389394592285157,-10.479916496276855,-6.123352822113037,7.122160370467705,0.010400369696682586,1.8211483837648776,19.0,2006,0,-12.600000381469727,53.400001525878906,-46.95000076293945,2779096485
1.503170703125,-9.92295832824707,-8.451563305664063,7.110852182424875,0.024674733278036806,1.8339939347996126,19.0,2007,0,-12.149999618530273,55.04999923706055,-44.099998474121094,2779096485
1.780088442993164,-9.563530213928223,-10.478183073425292,7.075828711485435,0.029453729216022493,1.8302057479646736,19.0,2008,0,-12.149999618530273,55.04999923706055,-44.099998474121094,2779096485
1.9547012245178221,-9.032628866577149,-12.058683097839355,7.0486966395390525,0.025241094427366332,1.8188190898808636,19.0,2009,0,-12.149999618530273,55.04999923706055,-44.099998474121094,2779096485
2.006770827484131,-8.396667918395996,-14.934464282226562,7.019295900570456,0.023071210707206267,1.7849793008271908,19.100000381469727,2010,0,-12.149999618530273,55.04999923706055,-44.099998474121094,2779096485
2.0540324699401853,-8.365952710723876,-17.258061239624023,6.9403388206937295,0.009382616061492157,1.7424795644425608,19.100000381469727,2011,0,-12.600000381469727,56.400001525878906,-41.099998474121094,2779096485
1.9190831008911131,-8.358176757049561,-21.188137133789063,6.7740933942908965,0.0168177090365123,1.7071782192768912,19.100000381469727,2012,0,-12.600000381469727,56.400001525878906,-41.099998474121094,2779096485
1.76789033203125,-8.353719384002686,-24.744504325103758,6.517368621765752,0.00140073617102005,1.6766166816340362,19.100000381469727,2013,0,-12.600000381469727,56.400001525878906,-41.099998474121094,2779096485
1.786822466278076,-8.339876898956298,-28.43796209335327,6.211193402274595,-0.03534302363644287,1.648019970966717,19.0,2014,0,-12.600000381469727,56.400001525878906,-41.099998474121094,2779096485
1.9593291061401366,-8.158410540008544,-32.36833100357055,5.848876823256497,-0.09937910444987916,1.609576888026769,19.0,2015,0,-13.800000190734863,55.349998474121094,-39.45000076293945,2779096485
3.1076169578552246,-6.459025476837158,-43.51615702972412,3.5478921683300437,-0.6356052147242953,1.1428742620067702,19.200000762939453,2020,0,-14.550000190734863,56.099998474121094,-37.79999923706055,2779096485
3.237273458099365,-5.90870323638916,-45.10949611434936,3.0450653602680284,-0.7019282118711909,0.9862326671398561,19.200000762939453,2021,0,-14.550000190734863,56.099998474121094,-37.79999923706055,2779096485
3.246108464050293,-5.279924957275391,-45.562717552947994,2.535847897740122,-0.7618049144595039,0.8189970375031198,19.200000762939453,2022,0,-14.550000190734863,56.099998474121094,-37.79999923706055,2779096485
3.125026328277588,-5.136905646514893,-45.780957202148436,2.0389904320624423,-0.8134690474874048,0.6592026061381607,19.200000762939453,2023,0,-14.699999809265137,55.79999923706055,-36.0,2779096485
2.9600649826049805,-4.629489247894287,-45.92788176116943,1.547841099273275,-0.8456833828388209,0.5056583608083612,19.100000381469727,2024,0,-14.699999809265137,55.79999923706055,-36.0,2779096485
2.912823789215088,-4.161786094665527,-45.88220064086914,1.0802834853648902,-0.8824685081956313,0.3584775058329799,19.100000381469727,2025,0,-14.699999809265137,55.79999923706055,-36.0,2779096485
2.696006976318359,-3.4885796211242677,-45.658937549591066,0.6176730992793952,-0.9138736420553879,0.22321065478103652,19.100000381469727,2026,0,-14.699999809265137,55.79999923706055,-36.0,2779096485
2.5129462631225583,-2.7736763801574704,-45.03350282363891,0.1992175043160997,-0.9394610339748201,0.0927490850668573,19.0,2027,0,-15.149999618530273,56.54999923706055,-35.849998474121094,2779096485
2.2937723495483398,-2.15234507522583,-44.28585068359375,-0.1755063826086641,-0.956526077437971,-0.035901148960157926,19.0,2028,0,-15.149999618530273,56.54999923706055,-35.849998474121094,2779096485
1.994888050842285,-1.6363980140686034,-43.38183690872192,-0.5086643972102272,-0.9585026755854442,-0.15035592221047303,19.0,2029,0,-15.149999618530273,56.54999923706055,-35.849998474121094,2779096485
1.7065085906982422,-1.1396429809570312,-42.53721443710327,-0.8080070106556323,-0.9369999668809745,-0.25342082826788664,19.0,2030,0,-15.149999618530273,56.54999923706055,-35.849998474121094,2779096485
1.4784668853759766,-0.6581990272521973,-41.82325065689087,-1.0672134631413177,-0.9003978539530169,-0.3415566592260603,19.0,2031,0,-15.149999618530273,55.650001525878906,-35.25,2779096485
1.2721454154968261,-0.15690837631225585,-41.17016591491699,-1.2889109963541052,-0.8535820389458,-0.4146483598687906,19.0,2032,0,-15.149999618530273,55.650001525878906,-35.25,2779096485
1.108612663269043,0.3563414268493652,-40.734715462493895,-1.4876090777347655,-0.7909971345740833,-0.47194070432144014,19.0,2033,0,-15.149999618530273,55.650001525878906,-35.25,2779096485
0.9789180313110352,0.8619215965270995,-40.36438257522583,-1.6678221714320245,-0.7211217535314466,-0.5180962085146178,19.0,2034,0,-15.149999618530273,55.650001525878906,-35.25,2779096485
0.8220717124938964,1.3231401153564453,-40.19018599014282,-1.8439473794631323,-0.646777308578455,-0.5561331926806331,19.0,2035,0,-15.149999618530273,55.650001525878906,-35.70000076293945,2779096485
0.7159704429626464,1.6914530311584473,-40.09218030776977,-2.0149628402669446,-0.5784937788032517,-0.584929733638973,19.100000381469727,2036,0,-15.149999618530273,55.650001525878906,-35.70000076293945,2779096485
0.5917159729003906,1.9789892944335936,-39.878468836975095,-2.1969063361863963,-0.5178960386705603,-0.6028893661956475,19.100000381469727,2037,0,-15.149999618530273,55.650001525878906,-35.70000076293945,2779096485
0.5257632110595702,2.1986678924560548,-39.592991312408444,-2.3921186992508447,-0.4593022074021332,-0.6121042097675203,19.100000381469727,2038,0,-15.149999618530273,55.650001525878906,-35.70000076293945,2779096485
0.55655673828125,2.3721627044677733,-39.13548622436523,-2.6064175781899768,-0.4061626099035382,-0.6199649757503507,19.100000381469727,2039,0,-15.149999618530273,56.25,-37.5,2779096485
0.6205573432922363,2.4614425048828124,-38.50590568389892,-2.8338963547206,-0.35739102932633227,-0.6216989133188662,19.100000381469727,2040,0,-15.149999618530273,56.25,-37.5,2779096485
0.6469728637695312,2.4873217140197754,-37.8086579498291,-3.073864238150209,-0.31128761656371856,-0.627636051427941,19.100000381469727,2041,0,-15.149999618530273,56.25,-37.5,2779096485
0.5862889701843261,2.4911249412536622,-37.1041311706543,-3.32530801553324,-0.27537891088401945,-0.6313234709058265,19.200000762939453,2042,0,-15.149999618530273,56.25,-37.5,2779096485
0.45614498214721677,2.4418255325317384,-36.38293197250366,-3.598222829977695,-0.2450204126412767,-0.6297564869049008,19.200000762939453,2043,0,-14.25,56.099998474121094,-37.650001525878906,2779096485
0.2810102447509766,2.292137358856201,-35.47030233688354,-3.884832677259755,-0.22462198367521957,-0.6243050760858048,19.200000762939453,2044,0,-14.25,56.099998474121094,-37.650001525878906,2779096485
0.09889295501708983,2.0725311737060546,-34.414113191223144,-4.17975111437467,-0.20874127457229874,-0.6075833140848059,19.200000762939453,2045,0,-14.25,56.099998474121094,-37.650001525878906,2779096485
0.04952932052612304,1.7390224563598633,-33.61042369384766,-4.496299093240098,-0.2125454670052791,-0.5879120146440788,19.0,2046,0,-14.399999618530273,55.650001525878906,-38.70000076293945,2779096485
0.1391452033996582,1.439228155517578,-32.220081479644776,-4.815529095015594,-0.23823882610375732,-0.5640777883161003,19.0,2047,0,-14.399999618530273,55.650001525878906,-38.70000076293945,2779096485
0.3315888603210449,1.143635969543457,-30.88788911972046,-5.133259930186857,-0.2775361046416725,-0.5434616193008147,19.100000381469727,2048,0,-14.399999618530273,55.650001525878906,-38.70000076293945,2779096485
0.6228271522521972,0.8624687492370605,-29.36708130264282,-5.4457620946731655,-0.3401616155618312,-0.5257647541891899,19.299999237060547,2049,0,-14.399999618530273,55.650001525878906,-38.70000076293945,2779096485
0.986962589263916,0.5876246269226074,-27.74518560180664,-5.740215430680602,-0.42261121147340486,-0.5090607421567345,19.299999237060547,2050,0,-14.399999618530273,55.20000076293945,-41.70000076293945,2779096485
1.2649070068359374,0.28284524002075195,-26.012982591247557,-6.020987755393477,-0.5227715475657873,-0.4990415107568393,19.299999237060547,2051,0,-14.399999618530273,55.20000076293945,-41.70000076293945,2779096485
1.2236963813781738,-0.17370760192871093,-24.270519271087647,-6.286116332417696,-0.6248994736633174,-0.4907029470461214,19.200000762939453,2052,0,-14.399999618530273,55.20000076293945,-41.70000076293945,2779096485
1.184139737701416,-0.6300147933959961,-22.602789511871336,-6.5422878465459835,-0.7209449462678913,-0.48395293228310793,19.100000381469727,2053,0,-14.399999618530273,55.20000076293945,-41.70000076293945,2779096485
1.1632738395690918,-1.0904451446533203,-21.093866116333007,-6.785551771302369,-0.8099838285138939,-0.4683087052254582,19.100000381469727,2054,0,-14.25,55.95000076293945,-43.5,2779096485
1.105949910736084,-1.5468351791381836,-19.749383905029298,-7.031805666941456,-0.8922449059110991,-0.44661185207885606,19.100000381469727,2055,0,-14.25,55.95000076293945,-43.5,2779096485
1.458218235015869,-1.7539947616577147,-18.764777033233642,-7.26877534366275,-0.985582822548829,-0.42001932324981095,19.100000381469727,2056,0,-14.25,55.95000076293945,-43.5,2779096485
2.064912718963623,-2.021988745880127,-17.317491048431396,-7.52230809793258,-1.0871615449122347,-0.40040224576850525,19.100000381469727,2057,0,-14.25,55.95000076293945,-43.5,2779096485
2.4313428253173828,-2.6962838050842284,-15.512720470428466,-7.785374382943939,-1.1822346907516,-0.3850301604828778,19.100000381469727,2058,0,-14.550000190734863,53.54999923706055,-45.75,2779096485
2.690561281585693,-3.621762370300293,-13.3845696685791,-8.045924000716175,-1.2718332629284472,-0.36986712002557953,19.100000381469727,2059,0,-14.550000190734863,53.54999923706055,-45.75,2779096485
2.9489835700988767,-4.621234404754638,-11.0886233253479,-8.295307070667183,-1.3518393153460277,-0.3488002109988956,19.100000381469727,2060,0,-14.550000190734863,53.54999923706055,-45.75,2779096485
3.292896301269531,-5.556282684326172,-8.761246356201172,-8.537876795884891,-1.4226325947994685,-0.3248908901865956,19.200000762939453,2061,0,-14.550000190734863,53.54999923706055,-45.75,2779096485
3.667816919708252,-6.450091814422607,-6.277905331420898,-8.770186246994099,-1.4851923655885704,-0.3024051022040901,19.200000762939453,2062,0,-14.399999618530273,52.5,-48.45000076293945,2779096485
4.022552328491211,-7.367699545288086,-3.4743645668029783,-8.986599742403248,-1.528593854970007,-0.2837550784290709,19.200000762939453,2063,0,-14.399999618530273,52.5,-48.45000076293945,2779096485
4.103053759765625,-8.286329916381836,-0.42385923385620117,-9.171392088300207,-1.5565151879895234,-0.27061229864501757,19.200000762939453,2064,0,-14.399999618530273,52.5,-48.45000076293945,2779096485
3.8507988647460936,-9.38271781387329,3.1549774436950684,-9.315871426026476,-1.5601886258717823,-0.25516146368649767,19.0,2065,0,-14.399999618530273,52.5,-48.45000076293945,2779096485
3.501447616577148,-10.218190019989013,7.757213133239746,-9.409746189330956,-1.5260267408022834,-0.23648542748570983,19.0,2066,0,-14.399999618530273,51.45000076293945,-51.75,2779096485
2.930017565917969,-11.107293509674072,13.733471074676514,-9.407220480659996,-1.4339430731608203,-0.2134588047527478,19.0,2067,0,-14.399999618530273,51.45000076293945,-51.75,2779096485
2.229398801422119,-11.975041632080078,20.51713867340088,-9.283823771268638,-1.2620620117717507,-0.18063010477368333,19.0,2068,0,-14.399999618530273,51.45000076293945,-51.75,2779096485
1.6008248260498046,-12.535773979949951,27.62119379196167,-9.03369433711146,-1.0064585432421702,-0.14382701639544387,19.0,2069,0,-14.399999618530273,51.45000076293945,-51.75,2779096485
0.9307572280883789,-12.965677875518798,36.00204718017578,-8.628141211592904,-0.6899124685369085,-0.10370345218759369,19.0,2070,0,-15.449999809265137,48.75,-54.29999923706055,2779096485
0.20170203704833983,-13.148338130950927,44.703983580780026,-8.058509247729852,-0.2988925791716908,-0.06957370481432847,19.0,2071,0,-15.449999809265137,48.75,-54.29999923706055,2779096485
-0.544384048461914,-13.14814313583374,53.32853540649414,-7.326139480279991,0.15885341671605194,-0.04846650216062851,19.0,2072,0,-15.449999809265137,48.75,-54.29999923706055,2779096485
-1.1466023178100586,-13.000991394042968,61.20172035293579,-6.447415096919367,0.6423259546892273,-0.048057740225624083,19.0,2073,0,-15.449999809265137,48.75,-54.29999923706055,2779096485
-2.110437274932861,-12.855239609527587,69.55721588974,-5.456499154508347,1.1607100708894122,-0.07115813917817704,19.0,2074,0,-15.449999809265137,47.54999923706055,-56.70000076293945,2779096485
-3.0812527656555173,-12.994240361022948,76.20962463378906,-4.390742293999433,1.7076807444553301,-0.11852104736436905,19.0,2075,0,-15.449999809265137,47.54999923706055,-56.70000076293945,2779096485
-3.728367015838623,-13.668935803222656,77.82107183380127,-3.3131648732311865,2.2740252490281603,-0.1683470599626265,19.0,2076,0,-15.449999809265137,47.54999923706055,-56.70000076293945,2779096485
-4.205124843597412,-14.465895426940918,77.8174547416687,-2.3034822672481066,2.825858102368141,-0.19633811453900207,19.0,2077,0,-15.449999809265137,47.54999923706055,-56.70000076293945,2779096485
-3.9748806953430176,-14.397703062438964,77.81728393402099,-1.394389478685552,3.31686446335517,-0.21072849207454558,19.0,2078,0,-14.850000381469727,46.349998474121094,-57.45000076293945,2779096485
-3.125764251708984,-13.616120949554443,77.81987146987915,-0.6719456121558269,3.6735568722954457,-0.23097080653857513,19.0,2079,0,-14.850000381469727,46.349998474121094,-57.45000076293945,2779096485
-1.4478736618041992,-11.76301700363159,77.82685533065796,-0.14045892990377243,3.90965835850734,-0.2886963274553546,19.0,2080,0,-14.850000381469727,46.349998474121094,-57.45000076293945,2779096485
0.009647921752929688,-9.02046129837036,77.83977506561278,0.13685448120907806,4.0056256207291385,-0.3893183624669457,18.899999618530273,2081,0,-14.850000381469727,46.349998474121094,-57.45000076293945,2779096485
0.5106900062561035,-6.54999634399414,77.85346416397094,0.20488512386680802,3.9875972519852017,-0.52502659251912,18.899999618530273,2082,0,-13.800000190734863,45.75,-57.75,2779096485
0.40745067138671875,-4.229510485839843,77.86777451019287,0.07722286267629806,3.9813511672180923,-0.6564741909622221,19.0,2083,0,-13.800000190734863,45.75,-57.75,2779096485
-0.33244682388305663,-2.403804662322998,77.88066512298583,-0.2062488953621518,3.981104039186437,-0.7707381021164257,19.200000762939453,2084,0,-13.800000190734863,45.75,-57.75,2779096485
-1.5329670486450195,-1.302315077972412,77.89037611160278,-0.5574811782887239,4.049083635704323,-0.8415523739370148,19.200000762939453,2085,0,-12.899999618530273,45.599998474121094,-59.25,2779096485
-2.8449444412231446,-1.0289174934387206,77.89535794525146,-0.9204328812750245,4.146280672472139,-0.8608221885303661,19.200000762939453,2086,0,-12.899999618530273,45.599998474121094,-59.25,2779096485
-4.241528480529785,-1.6064076454162597,77.89540194625854,-1.2054270020506426,4.271930096550892,-0.8350128088197959,19.200000762939453,2087,0,-12.899999618530273,45.599998474121094,-59.25,2779096485
-5.311573681640625,-3.180790557861328,77.8885815284729,-1.3814502110127012,4.3885526096767045,-0.7642814744928845,19.200000762939453,2088,0,-12.899999618530273,45.599998474121094,-59.25,2779096485
-6.3899158203125,-4.923198026275634,77.88076471405029,-1.4003094726952272,4.467980017114511,-0.6640882150717523,19.200000762939453,2089,0,-11.699999809265137,45.150001525878906,-58.79999923706055,2779096485
-7.709650923156738,-6.492178609466553,77.87463223724365,-1.1866873296160447,4.47721972129499,-0.5446314128015929,19.100000381469727,2090,0,-11.699999809265137,45.150001525878906,-58.79999923706055,2779096485
-9.354274359130859,-7.88383681640625,77.87038537368774,-0.7221885293040657,4.387631954894191,-0.40840537768433016,19.0,2091,0,-11.699999809265137,45.150001525878906,-58.79999923706055,2779096485
-11.144999718475342,-8.917894502258301,75.73661388244629,-0.023828740216170655,4.1914267786979895,-0.23984184267398423,19.0,2092,0,-11.699999809265137,45.150001525878906,-58.79999923706055,2779096485
-12.543582719421387,-9.319029103851317,69.77347474594116,0.8619732200613935,3.8781659062539426,-0.028058212840703124,19.100000381469727,2093,0,-11.25,45.599998474121094,-60.45000076293945,2779096485
-13.079880377197265,-8.828700610351563,62.87924229888916,1.8578184938529005,3.455393766614873,0.20916888502978867,19.200000762939453,2094,0,-11.25,45.599998474121094,-60.45000076293945,2779096485
-12.26700749206543,-7.5707364166259765,56.05771974029541,2.86760784598964,2.970625674017207,0.45036557095162355,19.200000762939453,2095,0,-11.25,45.599998474121094,-60.45000076293945,2779096485
-10.87871485748291,-6.070844480133056,49.19816883468628,3.814506536232012,2.4681696112658966,0.6656774830729462,19.200000762939453,2096,0,-11.25,45.599998474121094,-60.45000076293945,2779096485
-8.894509219360351,-4.451732581329345,42.507586992645265,4.647942261012517,1.9893229441269824,0.8313238646821967,19.200000762939453,2097,0,-9.0,45.599998474121094,-60.0,2779096485
-6.381868346405029,-3.2148901794433593,36.231164087677,5.352016088548601,1.5382194312160775,0.9391970414756775,19.200000762939453,2098,0,-9.0,45.599998474121094,-60.0,2779096485
-4.5354117675781245,-2.7602315116882323,30.025565532684325,5.9260872756022005,1.1240472844943368,0.9946080956577101,19.200000762939453,2099,0,-9.0,45.599998474121094,-60.0,2779096485
-3.6785400062561036,-3.0711118980407712,24.113621923065185,6.36049547170155,0.7326457175422146,1.0135737705987617,19.100000381469727,2100,0,-9.0,45.599998474121094,-60.0,2779096485
-3.5903510719299314,-3.8094919006347654,18.81900006866455,6.6559395968383255,0.3649674362857236,1.0169163839547817,19.100000381469727,2101,0,-8.550000190734863,46.5,-58.349998474121094,2779096485
-3.6027766273498534,-4.406813272857666,14.366373934173584,6.821861402565619,0.04292765310564331,1.0206394365278075,19.100000381469727,2102,0,-8.550000190734863,46.5,-58.349998474121094,2779096485
