accelX,accelY,accelZ,gyroX,gyroY,gyroZ,temp,dataCNT,pad,magX,magY,magZ,pad
0.0,0.0,0.0,0.0,0.0,0.0,0.0,0,0,-29.700000762939453,28.649999618530273,-68.0999984741211,3211192730
476249.68712041376,5.00272508812452e-22,15791593357.99786,0.0,0.0,0.0,0.0,0,0,0.0,0.0,3.426801125687731e-38,3219981422
-1.3481396034240722,9.70500369491577,-0.0014690662262191773,0.007303945608040466,-0.0007905793378651428,3.151709350137e-311,0.0,0,0,0.0,-0.930712878704071,-1.256103515625,1092484250
1.0774817003753542e-21,15993706375.998287,0.0,0.0,0.0,0.0,0.0,0,0,-3.429083659427785e-29,-1.8490428924560547,-2.4098197401735675e-36,3220543765
9.695040438842772,-0.0022039988134895327,0.007321595708043671,-0.0024176575683755495,3.155953367622e-311,3167540751.5375,-68.4000015258789,61440,49009,-1.232177734375,9.924413681030273,-0.037017956376075745,995192970
15589472136.543703,0.0,0.0,0.0,0.0,0.0,-0.001518749981187284,38349,49132,7.52863589371713e-28,-1.918370246887207,-209642554654720.0,1076060191
-0.0007225888357026673,0.0061471350174871825,-0.0025097097308215332,3.158075363413e-311,0.0,-0.00841674953699112,-1.2417480945587158,47104,16669,-0.03595269098877907,0.004527375567704439,-0.013315810821950436,1108175364
0.0,0.0,0.0,0.0,0.0,-0.9014930068969726,-1.9259298957341532e-38,42359,49141,-951.0911865234375,2.5526716709136963,0.00024056476831901819,3209151951
0.007051564491170807,-0.001607337549065857,3.160197359204e-311,0.0,-0.001589966006577015,506355.43715195655,-0.032490577548742294,22689,15220,-0.013848443515598774,35.35353088378906,0.0,0
0.0,0.0,0.0,0.0,-0.9022633422851563,-1.3570321434020995,-3.3592740509369295e+28,23029,16419,-6.1648304249966705e-40,-0.8780107498168945,2.4507236575933362e-34,1064949370
-0.0014203969576324462,3.162319354995e-311,0.0,-0.004678346216678619,522035.4371507883,7.3126511834942735e-22,-0.011185280978679657,27140,16909,0.0,0.0,0.0,0
0.0,0.0,0.0,-0.8926959831237793,-1.3533118339538575,9.68215292892456,-2.598270652400344e-33,28326,49001,-5.837458414711603e+17,0.9784536361694336,8.218562102043123e+21,3210554260
3.1644413248826e-311,3489662479.5,-0.004080201536061168,476876.93714261055,1.2502278980261368e-22,15791593355.816196,0.0,0,0,0.0,0.0,0.0,0
0.0,0.0,-0.8953798950195312,-1.3467948249816895,9.685289374542236,-0.0016232565943724061,-1.8841829091337148e-27,25690,16252,-4584813056.0,0.6171960830688477,26.299999237060547,1492
0.0,-0.0032455436885356903,495065.6871437788,5.770285222772302e-23,15791593353.089119,0.0,0.0,0,0,0.0,0.0,0.0,0
0.0,-0.8973376594543456,-1.3366462188720702,9.69435634841919,-0.002480767827873993,0.005406982634516144,-5.214887539874942e+26,40199,48990,26.399999618530273,2.092138607236952e-42,0.0,0
-0.0032455436885356903,522035.4371344328,4.678936118864884e-20,15993706375.998287,0.0,0.0,0.0,0,0,0.0,0.0,0.0,0
-0.8961315757751465,-1.338074550628662,9.684565245819092,-0.0011589744089241028,0.006064603655872803,-0.0016023640957643127,26.399999618530273,1494,0,0.0,0.0,0.0,3211273011
505100.9371437788,7.31265118302368e-22,15791593352.543703,0.0,0.0,0.0,0.0,0,0,0.0,0.0,-7.329682028519405e+37,3219938966
-1.3334867820739746,9.695384259796143,-0.00020044281806732179,0.006598341082073059,-0.0022414495160614015,3.17292933395e-311,-29.700000762939453,0,16874,-68.0999984741211,-0.9642089605331421,-1.2776367664337158,1092551987
1.0774817004560273e-21,15791593360.362469,0.0,0.0,0.0,0.0,0.0,0,0,-6.966434741894605e+21,-1.8469128608703613,-865591804035072.0,3220521973
9.694256121826172,-0.0008133293913208007,0.005516558396814423,-0.0017832060483433533,3.1750513297407e-311,0.0,0.0,42598,49005,-1.251318335533142,9.933984756469727,-0.03355584293603897,1002437758
15589472140.907028,0.0,0.0,0.0,0.0,0.0,-5.62519913238925e+27,33394,49132,2.2144317313177453e-07,-1.9163446426391602,2.7974543232415914e+23,1076061011
-0.0013713215569822693,0.005276367899750824,-0.001602503911720581,3.1771732996283e-311,0.0,-0.00527649000287056,-1.303955078125,11674,16670,-0.03648532181978226,0.004261059686541557,-0.015180024318397045,1108150691
0.0,0.0,0.0,0.0,0.0,-0.8819297554016113,-858154.5625,20238,49141,-0.003284374950453639,2.552999496459961,-8.869350511864826e-25,3207614535
0.005804559293019104,-0.0007941746053120423,3.1792952954193e-311,0.0,-0.00811767578125,493811.4371379375,-0.03462110832333565,34931,15150,-0.009321067482233047,35.35353088378906,0.0,0
0.0,0.0,0.0,0.0,-0.870417529296875,-1.3223699295043945,7.653440189090694e+27,24804,16419,3.9702126114986896e-23,-0.8607968688011169,-15636248920064.0,1064808129
-0.003324463913315735,3.1814172912103e-311,3811784207.575,-0.005426029711622959,501337.68712275027,6.013542652995893e-24,-0.012516862712800503,27140,16909,0.0,0.0,0.0,0
0.0,0.0,0.0,-0.8817044792175293,-1.3203328735351563,9.699813333129882,-1.7589896311451156e+18,43003,48977,1.2014729734879537e-21,0.9579761028289795,7.737563645876916e-23,3209297402
3.1835392610984e-311,0.0,-0.003930665552616119,495065.6871297598,2.6458454567818843e-23,15791593353.634535,0.0,0,0,0.0,0.0,0.0,0
0.0,0.0,-0.8817564804077148,-1.3213244102478028,9.704146852874755,-0.0014334331310787965,5.339915109491802e+18,51066,16247,-2283611648.0,-0.7776187658309937,26.100000381469727,1501
0.0,-0.00309600867331028,506982.6871472836,3.2328088195832778e-21,15791593355.816196,0.0,0.0,0,0,0.0,0.0,0.0,0
0.0,-0.8731683586120605,-1.3154904823303222,9.692601990509033,-0.0016110992640797424,0.00705332217747818,39933.28125,28399,48986,26.100000381469727,2.1047502934158752e-42,0.0,0
-0.004678346216678619,518899.4371344328,2.856504368079756e-24,15993706365.452444,0.0,0.0,0.0,0,0,0.0,0.0,0.0,0
-0.8753163703918456,-1.3131993270874023,9.685479023742676,-0.0015632089701065064,0.00622778885054596,-0.002602634078518524,26.299999237060547,1503,0,-29.850000381469727,29.700000762939453,-67.5,3210831462
520153.6871414423,6.7733643702221384e-21,15993706379.27078,0.0,0.0,0.0,0.0,0,0,0.0,0.0,-1.0388792317376205e+27,3219936447
-1.309856820678711,9.697105420684814,-0.0015348995679135133,0.006824603246731262,-0.0019682358217077635,3.1920272960685e-311,0.0,0,0,0.0,-0.9378906488418579,-1.251318335533142,1092526899
1.5394669191669487e-21,15791593351.998287,0.0,0.0,0.0,0.0,0.0,0,0,0.0019187500001862645,-1.8456898927688599,-1.7280909904546103e+19,3220501960
9.69397809677124,-0.003018000652980957,0.006565484332350006,-0.0006038517993174744,3.1941492918594e-311,0.0,0.0,62259,48990,-1.2417480945587158,10.015332221984863,-0.034354791045188904,999578209
15791593355.816196,0.0,0.0,0.0,0.0,0.0,1.6849403135749133e+21,62654,49131,4.789963155448198e-31,-1.9133062362670898,3.375426319547065e-23,1076060188
-0.0023510585678730776,0.007124648288883056,-0.0025124927341415404,3.196271261747e-311,0.0,-0.00264739990234375,-1.2417480945587158,59648,16669,-0.03542005643248558,0.0037284272257238626,-0.012250546365976334,1108175364
0.0,0.0,0.0,0.0,0.0,-0.880698250579834,1.25427243347076e-06,61834,49140,8026220.0,2.553103446960449,9.273948619665242e+30,3211061134
0.005809426219877777,-0.003234329226841431,3.198393205732e-311,3328601615.35,-0.0031707785276609,484403.43712391856,-0.03408847749233246,58517,15202,-0.012783179059624672,35.44764709472656,0.0,0
0.0,0.0,0.0,0.0,-0.8838708465576172,-1.307062289428711,-2704111360.0,26928,16419,-4.64950273644554e+35,-0.8739114999771118,-2.038567785371114e+19,1065256170
-0.002154663754634857,3.2005152015227e-311,0.0,-0.00309600867331028,486284.93710873125,6.013542653521109e-24,-0.015712657943367958,27140,16909,0.0,0.0,0.0,0
0.0,0.0,0.0,-0.8792646476745605,-1.3088870788574218,9.69264748687744,108684.4609375,37964,48999,6.651602936078687e-20,0.9816415905952454,-1.6717209990355674e+32,3211135639
3.202637223217e-311,0.0,-0.00309600867331028,481894.687107563,5.002725089132935e-22,15993706379.816196,0.0,0,0,0.0,0.0,0.0,0
0.0,0.0,-0.8781866790771484,-1.303240444946289,9.689752168273925,-0.0012509932818566894,6.510889943456277e-05,8233,16255,5.062410091311923e+16,-0.7351363897323608,26.399999618530273,1510
0.0,-0.0037689208984375,549888.3742805481,1.2628159451497179e-23,15791593360.635176,0.0,0.0,0,0,0.0,0.0,0.0,0
0.0,-0.8845949378967285,-1.3100700218200683,9.704821298217773,-0.002032597766909943,0.006255266014904022,7.714825846777819e-16,52936,48931,26.399999618530273,2.1173619795947986e-42,-30.0,1105697178
-0.001889038607393445,498828.9371063948,7.312651182687541e-22,15791593360.635176,0.0,0.0,0.0,0,0,0.0,0.0,0.0,0
-0.887147183227539,-1.3047441802978514,9.69258853225708,-0.00342846035316864,0.006334495056789399,-0.0012332033658972168,26.399999618530273,1512,0,0.0,0.0,0.0,3211353293
474368.1870958805,2.308838381973198e-21,15993706384.089762,0.0,0.0,0.0,0.0,0,0,0.0,0.0,209642554654720.0,3219914383
-1.3098705780029296,9.691723989105224,-0.0008964000430522155,0.005541152689312287,0.00011909656312988281,3.211125258187e-311,0.0,0,0,0.0,-0.9091796875,-1.201074242591858,1092499302
2.6927995221770195e-22,15791593353.634535,0.0,0.0,0.0,0.0,0.0,0,0,-5.354556106349821e+29,-1.844362497329712,-79886392.0,3220494990
9.704219863891602,-0.0011589877247294618,0.006318502774553376,-0.0034143389415855407,3.213247253978e-311,3006477839.2,-68.69999694824219,45056,48997,-1.2178223133087158,9.922021865844727,-0.03275689482688904,997480609
15791593359.634106,0.0,0.0,0.0,0.0,0.0,8.013311812402976e-29,17077,49132,-3.652530751810379e-13,-1.9133504629135132,2.567071538882174e+33,1076062062
-0.0010721020947627258,0.006326166020537415,-0.002509123835385742,3.215369249769e-311,0.0,-0.00136566162109375,-1.2106444835662842,22016,16669,-0.03648532181978226,0.003994743339717388,-0.01651160605251789,1108200036
0.0,0.0,0.0,0.0,0.0,-0.8712272674560546,8.858478593677319e-14,52738,49140,-14747199488.0,2.5529301166534424,1.5036592047585545e+20,3211077530
0.007170201659015808,-0.003414671836719513,3.2174912196567e-311,0.0,-0.003021240234375,495065.6871274233,-0.03462110832333565,28810,15185,-0.010652649216353893,35.35353088378906,0.0,0
0.0,0.0,0.0,0.0,-0.8725742141723632,-1.3032346130371093,120.83200073242188,25014,16419,-1.1627353330795151e+18,-0.859342098236084,-5.518284397140749e-13,1064992091
-0.0017852699981739807,3.2196132154476e-311,0.0,-0.0027969367802143097,533581.3743039131,2.2540176652439084e-25,-0.015712657943367958,27140,16909,0.0,0.0,0.0,0
0.0,0.0,0.0,-0.8760434150695801,-1.3054064010620117,9.704239939117432,1.4432633002641204e-27,37094,48976,7.957693375920633e+37,0.986816942691803,-8786183458914304.0,3211770044
3.2217352112386e-311,4133907983.3875,-0.003245545103968084,513881.687116909,2.6927995218408812e-22,15589472131.089546,0.0,0,0,0.0,0.0,0.0,0
0.0,0.0,-0.8721482231140136,-1.3062636543273924,9.694234925079346,-0.0028204739962872315,-4.8387300418545695e+32,24571,16255,-2.1292465167563076e-28,-0.9304181337356567,26.399999618530273,1519
0.0,-0.0021240226924419403,515763.43712041376,2.856504368106017e-24,15993706372.180378,0.0,0.0,0,0,0.0,0.0,0.0,0
0.0,-0.8694667411804199,-1.3124494033813476,9.700133303070068,-0.0024679846547294615,0.006152268260453033,60575.234375,43731,48987,26.399999618530273,2.129973665773722e-42,0.0,0
-0.001926422119140625,496320.18708770274,1.2502278977572262e-22,15791593360.635176,0.0,0.0,0.0,0,0,0.0,0.0,0.0,0
-0.8705221298217773,-1.3177333374023437,9.696538417053223,-0.0022108298216386413,0.00793712546866089,-0.002782490661501007,26.399999618530273,1521,0,0.0,0.0,0.0,3211192730
517644.9371180773,6.773364369630535e-21,15791593353.089119,0.0,0.0,0.0,0.0,0,0,0.0,0.0,-6.482877928058739e-13,3219908369
-1.3191504165649413,9.70214448928833,-0.002541933979790039,0.00724170087589035,-0.003411349543282471,3.230223246209e-311,-29.700000762939453,26214,16876,-69.44999694824219,-0.911572277545929,-1.232177734375,1092579584
1.7026092816813712e-31,15589472143.634106,0.0,0.0,0.0,0.0,0.0,0,0,-1.644897452024452e-06,-1.8431110382080078,4.2095470622718034e+18,3220524045
9.703942324829102,-0.0027075426510385133,0.007713732860057526,-0.0027775971030316164,3.232345242e-311,0.0,0.0,36864,48991,-1.191503882408142,9.914843559265137,-0.03542005643248558,990617692
15993706377.089119,0.0,0.0,0.0,0.0,0.0,-7.462978591897724e-36,51832,49131,-1.1186784463178279e-13,-1.9168269634246826,6.534726523624557e-26,1076061310
-0.002268427337718506,0.006810475177245484,-0.0035909464680604552,3.234467237791e-311,0.0,-0.001515197567641735,-1.2537109851837158,43981,16671,-0.03462110832333565,0.0055926404893398285,-0.014114759862422943,1108175364
0.0,0.0,0.0,0.0,0.0,-0.8808826660156249,2.4098197401735675e-36,32697,49141,63910.70703125,2.5532400608062744,2.3340551335394123e+22,3211481030
0.007769819032229157,-0.0034109300954136656,3.236589233582e-311,0.0,-0.00346984900534153,498201.6871145725,-0.035686373710632324,41052,15243,-0.012783179059624672,35.44764709472656,0.0,0
0.0,0.0,0.0,0.0,-0.8834182006835937,-1.344493837738037,3.335571136631188e-06,25541,16419,-262201763954688.0,-0.8633807301521301,1570675097600.0,1065075440
-0.002055507610029907,3.2387112034697e-311,2845416975.1625,-0.002871704771936834,505100.9371414423,2.3088383820000888e-21,-0.011984230019152164,27140,16909,0.0,0.0,0.0,0
0.0,0.0,0.0,-0.8754620559692382,-1.3479980674743652,9.695775969696045,-5.1160041480979856e-11,7140,48982,-3013700222976.0,1.004827618598938,4.6747523561291776e+17,3209787694
3.2408331992607e-311,0.0,-0.004678346216678619,493184.1871367693,2.216368074970759e-20,15993706384.362469,0.0,0,0,0.0,0.0,0.0,0
0.0,0.0,-0.8792080108642578,-1.3477400428771973,9.69510739364624,-0.0017129851487832641,-4.499290034783732e-34,24684,16256,3.459981296279015e-33,-0.8298266530036926,26.399999618530273,1528
0.0,-0.0024978630244731903,505100.937126255,1.2502278979084884e-22,15791593359.634106,0.0,0.0,0,0,0.0,0.0,0.0,0
0.0,-0.8881784965515136,-1.355527136993408,9.691844290924072,-0.0029341243950253295,0.007902504374727783,-3.326855535826022e+32,19355,48986,26.399999618530273,2.1425853519526453e-42,0.0,0
-0.00339508056640625,490675.4371285915,4.6789361193381666e-20,15791593353.634535,0.0,0.0,0.0,0,0,0.0,0.0,0.0,0
-0.8872915977478028,-1.3575873710632325,9.688026259613038,-0.001276273338330536,0.007987732186927337,-0.002335432470284424,26.399999618530273,1530,0,-30.299999237060547,28.5,-68.8499984741211,3212075827
504473.6871472836,2.6927995219753366e-22,15791593359.08869,0.0,0.0,0.0,0.0,0,0,0.0,0.0,-6.313493851711976e+24,3219935601
-1.360153261566162,9.679626889801025,-0.00293734681992218,0.007349399109633026,-0.002327869092840576,3.2493211824245e-311,0.0,0,0,0.0,-0.918749988079071,-1.296777367591858,1092506829
2.6927995222106335e-22,15791593356.907028,0.0,0.0,0.0,0.0,0.0,0,0,7.52863589371713e-28,-1.8459824323654175,-1956223.375,3220550925
9.692426734161376,-0.001994514563583527,0.0058134808826095586,0.0004796219932217407,3.251443152312e-311,0.0,0.0,50790,49011,-1.2919921875,9.914843559265137,-0.03408847749233246,1003581578
15791593353.089119,0.0,0.0,0.0,0.0,0.0,17.152000427246094,40415,49132,-1.8613582620125635e-19,-1.920524001121521,-293789499392.0,1076059747
-0.002872185926398468,0.007946140268888855,-0.0017886721864431763,3.253565148103e-311,0.0,-0.0037689208984375,-1.251318335533142,61850,16670,-0.03621900454163551,0.006657905410975218,-0.014381076209247112,1108175364
0.0,0.0,0.0,0.0,0.0,-0.8898775260925292,2.1837568053070795e-25,50649,49141,4.658681184655103e-24,2.5526976585388184,2.3887962470325874e-06,3209756425
0.007136193092129211,-0.0023355323388246155,3.255687143894e-311,3328601615.5375,-0.003096010088734147,506982.68715312483,-0.033289529383182526,64863,15375,-0.012250546365976334,35.35353088378906,0.0,0
0.0,0.0,0.0,0.0,-0.8838037048339843,-1.3595411727905273,-1.200646285897397e-31,24373,16419,2.625489821024359e-34,-0.8592424392700195,9.35725915542273e+32,1064847441
-0.001873933288156128,3.2578091655884e-311,0.0,-0.00422973558306694,491302.6871391058,2.216368074798656e-20,-0.01491370890289545,27140,16909,0.0,0.0,0.0,0
0.0,0.0,0.0,-0.8940890243530273,-1.3593305137634277,9.687795263671875,1.5551176111498307e-34,37380,48976,-1.8734645805805999e-38,0.9855518341064453,5.776614119640805e+22,3211089272
3.2599311613794e-311,0.0,-0.00677185133099556,481894.6871461153,1.477193017201812e-20,15791593358.543276,0.0,0,0,0.0,0.0,0.0,0
0.0,0.0,-0.8977256683349609,-1.3607443031311035,9.694361245727539,-0.001355249379914093,1.2883596355095506e-05,63873,16251,6.602805244120574e+34,-0.8899779319763184,26.399999618530273,1537
0.0,-0.00219879113137722,505728.18714494706,3.2328088195563866e-21,15993706377.089119,0.0,0.0,0,0,0.0,0.0,0.0,0
0.0,-0.8929008476257324,-1.3597909355163573,9.688604927062988,-0.003044625605796051,0.006838897763784027,-3.1133068972038323e+21,34024,48993,26.600000381469727,2.1551970381315687e-42,-29.850000381469727,1106011750
-0.0029464732108550606,485030.68716480734,9.850267007590803e-20,15791593360.089762,0.0,0.0,0.0,0,0,0.0,0.0,0.0,0
-0.8887044898986816,-1.3589456077575683,9.687139360809326,-6.287057500198365e-05,0.006867773087704773,-0.0022381938016511537,26.600000381469727,1539,0,0.0,0.0,0.0,3211353293
522035.43712158204,1.0774817004022453e-21,15791593357.452444,0.0,0.0,0.0,0.0,0,0,0.0,0.0,1096176115908608.0,3219958961
-1.3564952713012695,9.690292778778076,-0.0024170916466477966,0.005987598353482361,3.69447019682312e-05,3.26841919635e-311,0.0,0,0,0.0,-0.911572277545929,-1.303955078125,1092539443
2.692799522244247e-22,15791593360.907885,0.0,0.0,0.0,0.0,0.0,0,0,-1.4444473867681533e-38,-1.8481497764587402,-2.1302877934296767e-23,3220548112
9.692684197998046,-0.0014009492239057922,0.006286251893974151,-0.0008759669397290039,3.2705411662376e-311,0.0,0.0,23757,49001,-1.208251953125,9.989013671875,-0.035153742879629135,995192970
15791593347.089546,0.0,0.0,0.0,0.0,0.0,-6.530172046550001e-14,23425,49132,1.0814403810793882e+17,-1.9184075593948364,2.7950057921879183e-36,1076060155
-0.00031498537576446533,0.0072817947658259585,-0.001068533458926544,3.272663110222e-311,3006477839.3125,-0.0030960100886915144,-1.3135254383087158,23910,16671,-0.035153742879629135,0.002396845957264304,-0.013315810821950436,1108200036
0.0,0.0,0.0,0.0,0.0,-0.8895335556030273,3.191828579218736e-09,28533,49141,5.119999885559082,2.5526280403137207,-2.7616279125213623,3210936965
0.007000178798290863,-0.002328335146028137,3.2747851060127e-311,0.0,-0.001926422119140625,493811.4371589661,-0.03408847749233246,41052,15243,-0.013049494475126266,35.44764709472656,0.0,0
0.0,0.0,0.0,0.0,-0.894225326538086,-1.3374168159484863,5.15984470045396e+30,24378,16419,2336958.0,-0.8692755103111267,-3.422227739586647e+25,1064567918
-0.000872245172131195,3.276907127707e-311,0.0,-0.0016273502260446548,528563.3742782116,5.002725087990065e-22,-0.013315810821950436,27140,16909,0.0,0.0,0.0,0
0.0,0.0,0.0,-0.8884797370910644,-1.3377777961730957,9.688224095916748,-0.16303443908691406,27286,48975,-808.2496337890625,0.9742343425750732,-1.491287499922819e+20,3210167327
3.2790291494014e-311,0.0,-0.00346984900534153,486284.9371507883,1.0466346913172886e-20,15791593354.725365,0.0,0,0,0.0,0.0,0.0,0
0.0,0.0,-0.8854846778869628,-1.3297784729003905,9.681044679260253,-0.0003514640245451355,-5543629312.0,15560,16255,5.106179014546797e-05,-0.9016353487968445,26.5,1546
4133907983.6125,-0.004678349047475194,495065.6871297598,2.6458454569499536e-23,15791593351.998287,0.0,0.0,0,0,0.0,0.0,0.0,0
0.0,-0.8945102676391601,-1.3271027107238769,9.698349897766112,-9.789780099853516e-05,0.0068074857789424134,-128082576932864.0,57371,48992,26.5,2.167808724310492e-42,0.0,0
-0.0037689208984375,512000.1871461153,1.25022789779084e-22,15993706384.089762,0.0,0.0,0.0,0,0,0.0,0.0,0.0,0
-0.8942423736572266,-1.3246768608093262,9.708246199035644,-0.00016200674589889527,0.005811470196000366,2.0486366544647218e-05,26.299999237060547,1548,0,0.0,0.0,0.0,3211313152
515763.43714027404,4.925423494625503e-21,15791593349.816626,0.0,0.0,0.0,0.0,0,0,0.0,0.0,-1.7701664312378316e-26,3219944114
-1.3222330291748046,9.701859398651123,-0.0020820792996235657,0.006157734398552856,-0.001241812034061737,3.2875170807585e-311,0.0,0,0,0.0,-0.918749988079071,-1.239355444908142,1092471706
1.0466346912635065e-20,15993706378.17995,0.0,0.0,0.0,0.0,0.0,0,0,-2.101112973033133e+23,-1.845513939857483,8.090864783705243e-12,3220514041
9.702202584075927,0.0009724599232621765,0.006062666206193085,-0.0022481939714756776,3.2896390765495e-311,3811784207.35,-68.4000015258789,40141,49013,-1.2465331554412842,10.005762100219727,-0.029561100527644157,1000722029
15993706375.998287,0.0,0.0,0.0,0.0,0.0,-1.4222739657895211e+35,31902,49132,-1245.1839599609375,-1.9147807359695435,-9.08660865661659e-07,1076062383
-0.0013581522254823303,0.006102740122420654,-0.002509636493892059,3.291761098244e-311,0.0,-0.00369415245950222,-1.2345702648162842,61850,16670,-0.03808322176337242,0.004261059686541557,-0.011185280978679657,1108175364
0.0,0.0,0.0,0.0,0.0,-0.8884323715209961,-5.330974213715209e-35,5357,49141,-6.724649988699965e+21,2.5532355308532715,3.6970971237316513e-31,3208823861
0.005846577316829071,-0.0010626012676391602,3.293883094035e-311,0.0,-0.0037689208984375,490048.18710289,-0.03595269098877907,58517,15202,-0.012783179059624672,35.44764709472656,0.0,0
0.0,0.0,0.0,0.0,-0.8865126266479492,-1.3161314315795898,-7.962607169942298e+36,25919,16419,9.909041191475797e-15,-0.8595147132873535,1.12731142042728e-29,1065279158
-0.0026040056064704897,3.296005089826e-311,0.0,-0.00527649000287056,511372.93712275027,4.678936119424218e-20,-0.011185280978679657,51812,16909,0.0,0.0,0.0,0
0.0,0.0,0.0,-0.884143002319336,-1.313808275604248,9.701391761779785,-3.468474230366311e-22,31994,16113,-6.85573991846911e-18,0.977870523929596,-1.3057416259343313e-10,3210896792
3.2981270856167e-311,3489662479.35,-0.003544618859675097,502592.1870958805,1.0518748134685718e-24,15993706378.17995,0.0,0,0,0.0,0.0,0.0,0
0.0,0.0,-0.8902476280212402,-1.316410279083252,9.70201667327881,-0.002170702642189636,-1.7798841827482148e-12,4444,16251,-3.0426341635854402e-18,-0.8118427395820618,26.299999237060547,1555
0.0,-0.00339508056640625,501964.9371274233,1.262815944992153e-23,15791593350.907455,0.0,0.0,0,0,0.0,0.0,0.0,0
0.0,-0.8905161201477051,-1.3134139862060545,9.699480129241943,-0.001382593386218567,0.0057905710394895935,7.293735878526271e-19,5514,48995,26.299999237060547,2.1804204104894154e-42,0.0,0
-0.0028717033565044403,524800.3742898941,1.539466919328295e-21,15589472138.725365,0.0,0.0,0.0,0,0,0.0,0.0,0.0,0
-0.8866923690795898,-1.3155536613464356,9.698087013244628,-0.0018053768642658998,0.006356552688366394,-0.0021476596410160828,26.399999618530273,1557,0,0.0,0.0,0.0,3211152589
510745.6871344328,5.770285222352129e-23,15791593359.08869,0.0,0.0,0.0,0.0,0,0,0.0,0.0,2.2144317313177453e-07,3219934127
-1.3160536727905272,9.6997032371521,-0.00011323095086929321,0.006514804377154083,-0.0015170230992192079,3.3066150687806e-311,-29.549999237060547,13107,16875,-68.25,-0.9091796875,-1.201074242591858,1092431565
4.932874785412825e-26,15993706372.725794,0.0,0.0,0.0,0.0,0.0,0,0,4.486294644521229e+26,-1.8480806350708008,-1.997303673065872e-22,3220512130
9.705584829711913,-0.0034279809841757203,0.006240259102264557,-0.0017762019347245788,3.3087370645716e-311,0.0,0.0,42598,49005,-1.244140625,9.931591987609863,-0.03488742560148239,998434390
15791593356.907028,0.0,0.0,0.0,0.0,0.0,-21495.806640625,40879,49132,1.9259298957341532e-38,-1.9155927896499634,-6.987466052873919e-19,1076062102
-0.0011612048063217163,0.006871015486309662,-0.001695741180843506,3.3108590603625e-311,0.0,-0.00332031212747097,-1.239355444908142,26112,16672,-0.03355584293603897,0.0037284272257238626,-0.01491370890289545,1108150691
0.0,0.0,0.0,0.0,0.0,-0.8878138526916504,-28541561339904.0,17421,49141,443.18719482421875,2.55314040184021,-5.942137217112185e+27,3210263372
0.006602382428999481,-0.001603029886032257,3.3129810561535e-311,0.0,-0.003021240234375,492556.93711106776,-0.036751639097929,41052,15243,-0.011185280978679657,35.35353088378906,0.0,0
0.0,0.0,0.0,0.0,-0.8912430526733398,-1.3333635269165038,-1.9887877236884173e-28,26109,16419,0.3945332169532776,-0.7436141967773438,-30504632.0,1065192286
-0.0037821214855979918,3.3151030519445e-311,3650723343.425,-0.002273560985736367,488793.68713326455,1.2628159452337525e-23,-0.012783179059624672,27140,16909,0.0,0.0,0.0,0
0.0,0.0,0.0,-0.8992417778015136,-1.3318964279174805,9.697090018463134,-8.639794973409573e+27,28161,48998,3.70853907632868e-37,1.0207617282867432,8.304350958792275e-32,3210660371
3.3172250477354e-311,0.0,-0.0027969367802143097,504473.68709003925,3.232808819260585e-21,15791593353.089119,0.0,0,0,0.0,0.0,0.0,0
0.0,0.0,-0.896453377532959,-1.3399536964416503,9.690289264678954,-0.0027344605515715026,-2.9595000304820233e-16,16964,16256,-44266537615360.0,-0.892788290977478,26.399999618530273,1564
0.0,-0.003930665552616119,506355.4371379375,1.2502278980429438e-22,15791593358.543276,0.0,0.0,0,0,0.0,0.0,0.0,0
0.0,-0.8980681434631347,-1.3385291030883788,9.69365958480835,-0.0018617626420581056,0.0076828135600141905,4.1520111127249015e-19,26497,48977,26.399999618530273,2.1930320966683387e-42,-29.25,1106011750
-0.0031707785276779534,505100.93710989953,3.200583418860859e-20,15791593354.725365,0.0,0.0,0.0,0,0,0.0,0.0,0.0,0
-0.8979793190002441,-1.3415792289733885,9.686480055999755,-0.0013379920961689759,0.007593637611525726,-0.0010637797164134216,26.399999618530273,1566,0,0.0,0.0,0.0,3211313152
508236.93710172176,1.2502278978916814e-22,15791593356.361612,0.0,0.0,0.0,0.0,0,0,0.0,0.0,-7.084110820571282e-16,3219961288
-1.346025424194336,9.693285146331787,-0.003165126986391296,0.006049017505700226,-0.0032253144266134646,3.3257130308993e-311,0.0,0,0,0.0,-0.9283202886581421,-1.201074242591858,1092496794
3.2328088197984064e-21,15993706369.4533,0.0,0.0,0.0,0.0,0.0,0,0,6924284198912.0,-1.8508936166763306,-5.846018199861828e-20,3220536443
9.683990391540528,-0.003692366299576416,0.007307893744329376,-0.002775133679040222,3.32783502669e-311,0.0,0.0,4096,49016,-1.2776367664337158,9.962695121765137,-0.03621900454163551,989092001
15993706384.362469,0.0,0.0,0.0,0.0,0.0,-3.0890025044765875e-27,42114,49132,1.0327799270814297e-36,-1.91853928565979,1.293374175120876e-11,1076059755
-0.0013364008574285888,0.007054007941454163,-0.001242997140738678,3.329957022481e-311,2845416975.3125,-0.003768922313895473,-1.256103515625,11674,16670,-0.037550587207078934,0.002396845957264304,-0.010652649216353893,1108175364
0.0,0.0,0.0,0.0,0.0,-0.8983178314208984,-476472.9375,38421,49141,1.1961103176838026e-32,2.552999496459961,4764844544.0,3208868341
0.006076900802121735,-0.001427361123835144,3.332078992369e-311,0.0,-0.00452880933880806,499456.1871063948,-0.033822160214185715,64638,15295,-0.012783179059624672,35.35353088378906,0.0,0
0.0,0.0,0.0,0.0,-0.899283797454834,-1.3493453132629394,1.3471890466523143e-14,24403,16419,-4.692232873023898e+16,-0.8441118001937866,3.2630682842537777e-18,1064882049
-0.0026019017092237854,3.33420098816e-311,0.0,-0.00856628268957138,513881.6871379375,1.077481700523255e-21,-0.014114759862422943,27140,16909,0.0,0.0,0.0,0
0.0,0.0,0.0,-0.8920641555786133,-1.3469605484008789,9.685553492736815,2.825199422537728e+17,12584,48995,463042471002112.0,0.9704678058624268,8.449240730858687e+23,3211086223
3.3363229839507e-311,0.0,-0.0032455436885356903,500083.43714027404,2.6458454572860918e-23,15993706377.634535,0.0,0,0,0.0,0.0,0.0,0
0.0,0.0,-0.8917756256103515,-1.3449242027282715,9.678582529449463,-0.0020810273510002138,1.4477460948026761e-28,6237,16248,1.1960858188975874e-25,-0.8753891587257385,26.299999237060547,1573
3811784207.5375,-0.004229738413931728,474995.43714962003,1.4771930172233248e-20,15791593361.998716,0.0,0.0,0,0,0.0,0.0,0.0,0
0.0,-0.8932924827575683,-1.3462641212463378,9.687789282226563,-0.0005976133445068359,0.005713013131176758,-4.4545340791995323e-32,59499,48975,26.299999237060547,2.205643782847262e-42,0.0,0
-0.0035446174442768097,502592.18713326455,1.0466346912097243e-20,15791593353.089119,0.0,0.0,0.0,0,0,0.0,0.0,0.0,0
-0.8890412078857421,-1.3383546318054198,9.687113304138183,-0.0018216820679278565,0.006693069721396179,-0.0016068182326568604,26.299999237060547,1575,0,0.0,0.0,0.0,3211875123
504473.68713209627,1.4771930171157608e-20,15791593356.361612,0.0,0.0,0.0,0.0,0,0,0.0,0.0,0.0034843748435378075,3219931070
-1.3394598159790039,9.691930311584473,-0.0008459065091313172,0.006533060346301117,-0.0026043917648258972,3.344810993018e-311,0.0,0,0,0.0,-0.921142578125,-1.248925805091858,1092474214
6.0135426528908495e-24,15791593348.725794,0.0,0.0,0.0,0.0,0.0,0,0,6.160971569523213e+34,-1.8460087776184082,41.6255989074707,3220529711
9.692305722045898,-0.0010934340149476624,0.005112663388668671,-0.002959850530978699,3.346932988809e-311,3006477839.5375,-68.0999984741211,4915,48997,-1.2824218273162842,9.933984756469727,-0.035153742879629135,997480609
15993706380.361612,0.0,0.0,0.0,0.0,0.0,0.05874999985098839,13603,49132,5.211237942900546e-26,-1.917122483253479,1.4984130984885269e-06,1076061290
0.0004099337258760071,0.006776027188782043,-0.0025158549749946593,3.3490549846e-311,0.0,-0.0036193840205669403,-1.239355444908142,6656,16670,-0.031425315886735916,0.0026631623040884733,-0.015446340665221214,1108175364
0.0,0.0,0.0,0.0,0.0,-0.8819354751586914,2.4916718928146493e-37,17229,49141,3.8315794077197624e+37,2.5527219772338867,1.9607092451756884e-19,3209313058
0.006525776600769806,-0.0023287146464808653,3.351177006294e-311,0.0,-0.0037689208984375,484403.4371414423,-0.03275689482688904,28810,15057,-0.012250546365976334,35.35353088378906,0.0,0
0.0,0.0,0.0,0.0,-0.8827725784301758,-1.3253310066223145,-6.854534273514901e-09,25535,16419,-0.013185117393732071,0.7770060300827026,3.7481558819273918e+25,1064897501
-0.0013349494346444701,3.353299002085e-311,0.0,-0.00602417066693306,513254.6871391058,2.6458454567398672e-23,-0.012250546365976334,51812,16909,0.0,0.0,0.0,0
0.0,0.0,0.0,-0.8829291053771973,-1.3255374038696288,9.693157106018067,-4041058.25,48675,48969,-1.2706766643362534e+26,0.9841483235359192,-0.07374034821987152,3210989788
3.355420997876e-311,3167540751.575,-0.002124024107874334,498828.93712275027,6.7733643695767526e-21,15791593350.362041,0.0,0,0,0.0,0.0,0.0,0
0.0,0.0,-0.8809222557067871,-1.3195998100280761,9.700493647766113,-0.0012934573851461793,0.0032523570116609335,41976,16251,-252834144.0,-0.9274677634239197,26.5,1582
0.0,-0.0036193840205669403,512627.437116909,7.312651182620314e-22,15791593357.99786,0.0,0.0,0,0,0.0,0.0,0.0,0
0.0,-0.8768347229003906,-1.3183103973388672,9.6940470703125,-0.0007852530157215882,0.006645439085627441,-21199068.0,55280,48992,26.299999237060547,2.2182554690261854e-42,0.0,0
-0.0035446174442768097,524800.3742618561,1.4771930170081964e-20,15791593353.634535,0.0,0.0,0.0,0,0,0.0,0.0,0.0,0
-0.8783722160339356,-1.314643098449707,9.700461497497558,-0.0023581026289079283,0.007536213200915527,-0.0025970813876838683,26.299999237060547,1584,0,0.0,0.0,0.0,3211594138
508236.93714261055,1.5394669192072852e-21,15791593360.635176,0.0,0.0,0.0,0.0,0,0,0.0,0.0,41286660096.0,3219911944
-1.316254574584961,9.703411097717284,-0.002274319581589813,0.008705993385888367,-0.0021487049317367554,3.3639089292333e-311,-28.799999237060547,26214,16870,-68.4000015258789,-0.9259277582168579,-1.287207007408142,1092504320
3.2328088193412583e-21,15993706375.452871,0.0,0.0,0.0,0.0,0.0,0,0,2.8772432917958226e+22,-1.8443503379821777,2.0318111342704226e-13,3220509265
9.703499062347412,-0.0009411478069607544,0.008675034138428956,-0.0005209475951530457,3.3660309509276e-311,0.0,0.0,819,49024,-1.17236328125,9.912450790405273,-0.033289529383182526,997480609
15791593351.998287,0.0,0.0,0.0,0.0,0.0,1.2788211808586178e-25,5412,49132,1.2666202605865291e-26,-1.9147813320159912,-2.191313833337159e-15,1076061200
-0.0019014237683195497,0.008937841530894624,-0.001152416374784851,3.3681529467186e-311,0.0,-0.00234832800924778,-1.287207007408142,39270,16670,-0.033289529383182526,0.0055926404893398285,-0.013315810821950436,1108150691
0.0,0.0,0.0,0.0,0.0,-0.8724738380432129,-1988789572468736.0,4259,49141,-1087.8975830078125,2.5529868602752686,-8.134858830999292e-07,3210394604
0.006324348413105927,-0.002683607490905914,3.3702749425096e-311,0.0,-0.0032455436885356903,509491.4371297598,-0.03488742560148239,5223,15133,-0.011717913672327995,35.35353088378906,0.0,0
0.0,0.0,0.0,0.0,-0.8757333518981933,-1.3111174850463867,-7.493989505066598e+16,26268,16419,-4.4712794830720205e+18,-0.8727290630340576,1.666215889612886e-36,1065331091
-0.0019649468177841186,3.3723969383005e-311,2523295247.275,-0.005426029711622959,520780.9371484518,6.013542652995893e-24,-0.012516862712800503,2467,16909,0.0,0.0,0.0,0
0.0,0.0,0.0,-0.8794794937133789,-1.305508795928955,9.702926376342774,-435.9866027832031,37044,48988,-8.56666892595626e+17,0.9713401198387146,8.96035391487715e+32,3210260949
3.374518908188e-311,0.0,-0.00332031212747097,510118.68712391856,1.1158220188427034e-26,15791593353.634535,0.0,0,0,0.0,0.0,0.0,0
0.0,0.0,-0.8693284950256347,-1.3074153816223144,9.698521266174316,-0.0015685752396661376,4.914791447083178e-14,41261,16248,3.471811216761052e+22,-0.8926253318786621,26.299999237060547,1591
0.0,-0.00177688617259264,506982.6871414423,4.925423494141464e-21,15791593354.17995,0.0,0.0,0,0,0.0,0.0,0.0,0
0.0,-0.8732553512573242,-1.3070872993469238,9.696092986297607,-0.0021672205590882875,0.006855802178687134,-0.0003358394606038928,47755,48981,26.399999618530273,2.2308671552051088e-42,0.0,0
-0.00294647179543972,509491.43711924553,2.692799522277861e-22,15791593359.08869,0.0,0.0,0.0,0,0,0.0,0.0,0.0,0
-0.8762541488647461,-1.3005800102233886,9.694206101989746,-0.002242175227453461,0.00606379804964859,-0.001593915217264099,26.399999618530273,1593,0,-30.299999237060547,28.950000762939453,-67.94999694824219,3211553997
493184.18710055354,1.0774817003753542e-21,15791593353.089119,0.0,0.0,0.0,0.0,0,0,0.0,0.0,-1.8831342041281118e-10,3219911514
-1.3056222938537598,9.687575034332275,-0.001554826670633087,0.006225851400866241,-0.0015978100903315735,3.3830069172553e-311,0.0,0,0,0.0,-0.9498535394668579,-1.2584960460662842,1092541952
3.2328088194219315e-21,15791593355.816196,0.0,0.0,0.0,0.0,0.0,0,0,3.2835203648559514e+17,-1.84230375289917,-8.20741043796045e-21,3220491475
9.688590197753905,-0.0009837384104011537,0.0058808521998228456,-0.0021456489544068908,3.3851289130463e-311,0.0,0.0,39322,48983,-0.6172851324081421,9.989013671875,-0.03728426992893219,998434390
15791593359.634106,0.0,0.0,0.0,0.0,0.0,-9.137367976565928e-24,56585,49131,-107374184.0,-1.9132524728775024,2.2289569934252714e+21,1076060898
-0.002122179847461853,0.007316995097292175,-0.0018750717895143127,3.3872509088373e-311,0.0,-0.00309600867331028,-1.2345702648162842,11674,16670,-0.033822160214185715,0.004793691914528608,-0.007989486679434776,1108200036
0.0,0.0,0.0,0.0,0.0,-0.8692169036865234,-1.4616014943717506e-30,54945,49140,2.1035309556730683e+22,2.5531606674194336,-2.9837659432288512e-33,3211157565
0.006778290875693054,-0.0018710637321012879,3.389372904628e-311,3328601615.425,-0.00227356098575342,490675.4371297598,-0.03355584293603897,52845,15269,-0.012516862712800503,35.2594108581543,0.0,0
0.0,0.0,0.0,0.0,-0.8708894279479981,-1.3076118347167969,-3.5926816431007443e-17,26625,16419,23.107576370239258,-0.8747109174728394,-0.0031454411800950766,1065316142
-0.002058044270950775,3.391494900419e-311,0.0,-0.001589966006577015,501337.6871297598,2.8565043684736682e-24,-0.015180024318397045,27140,16909,0.0,0.0,0.0,0
0.0,0.0,0.0,-0.869508723449707,-1.3147600357055664,9.698901162719727,6.494537089729422e-21,4036,48989,1.0004070962232635e-21,0.9963337182998657,-1.1803325275838313e-28,3210893425
3.39361689621e-311,0.0,-0.0028717033565044403,489420.93711106776,5.770285223612648e-23,15791593357.452444,0.0,0,0,0.0,0.0,0.0,0
0.0,0.0,-0.8751133377075195,-1.3154870803833008,9.702803420257569,-0.002292049576425171,-223753552.0,2778,16248,-1.5746477842330933,-0.9186846613883972,26.399999618530273,1600
0.0,-0.00781860202550888,503846.6871040583,2.6458454569499536e-23,15993706380.907028,0.0,0.0,0,0,0.0,0.0,0.0,0
0.0,-0.8742032981872558,-1.3188543350219726,9.698175202178955,-0.001943987740149231,0.00605853830653183,-5.3719451548983325e-24,19449,48994,26.399999618530273,2.243478841384032e-42,-29.25,1105854464
-0.0019744890926233437,507609.68713209627,1.0774817003753542e-21,15791593353.634535,0.0,0.0,0.0,0,0,0.0,0.0,0.0,0
-0.8736345748901367,-1.3216729415893553,9.70140174331665,-0.0024085162679966738,0.007184016807075653,-0.001785349893006134,26.299999237060547,1602,0,0.0,0.0,0.0,3211072307
518272.18708770274,7.312651182687541e-22,15791593354.17995,0.0,0.0,0.0,0.0,0,0,0.0,0.0,0.0006476562120951712,3219916235
-1.326536417388916,9.700307886505126,-0.00214661435029541,0.00709685820309906,-0.001514293359120636,3.4021048534707e-311,0.0,0,0,0.0,-0.9091796875,-1.239355444908142,1092637286
1.4771930170942478e-20,15791593351.452871,0.0,0.0,0.0,0.0,0.0,0,0,-0.08060000091791153,-1.8449594974517822,-1.150159156177885e-31,3220520022
9.702364307403563,-0.001973122722274475,0.007371390162183228,-0.0008819790258485413,3.4042268492616e-311,0.0,0.0,11469,48992,-1.248925805091858,10.003369331359863,-0.03488742560148239,1004153487
15791593357.452444,0.0,0.0,0.0,0.0,0.0,-2.5066753651423373e-20,11034,49132,2128654499840.0,-1.9162611961364746,-2.1302877934296767e-23,1076060987
-0.0024699753676306153,0.0067002336246792605,-0.000513384217709198,3.406348870956e-311,3489662479.425,-0.003619385435999334,-1.2345702648162842,39270,16670,-0.034354791045188904,0.006391589529812336,-0.015712657943367958,1108200036
0.0,0.0,0.0,0.0,0.0,-0.8809198631286621,3.345310695124226e-10,26785,49141,-244.73599243164062,2.552971839904785,302.9593811035156,3211298927
0.007401284145213929,-0.0024156601975717164,3.408470866747e-311,0.0,-0.0018142703920602798,513254.6871297598,-0.035153742879629135,28810,15185,-0.01491370890289545,35.44764709472656,0.0,0
0.0,0.0,0.0,0.0,-0.8850395462036132,-1.3388063430786132,-5.793704983595406e-23,25016,16419,-0.0013969452120363712,-0.8860873579978943,9.082176863775168e-31,1065419506
-0.0015157114923913574,3.410592862538e-311,0.0,-0.00294647179543972,504473.687126255,1.2806976226975595e-19,-0.010918965563178062,27140,16909,0.0,0.0,0.0,0
0.0,0.0,0.0,-0.8863533706665039,-1.3457257911682128,9.684618032073974,5.463811400234718e+20,23209,48989,-2.5223638282223515e-14,0.9829554557800293,-264561479385088.0,3210268026
3.412714858329e-311,0.0,-0.00422973558306694,501337.6871367693,2.8565043682110602e-24,15791593360.362469,0.0,0,0,0.0,0.0,0.0,0
0.0,0.0,-0.8888044548034668,-1.35057685546875,9.688547953796386,-0.003109167314370575,-3.134578946628608e-05,58884,16256,25210.869140625,-0.9015482068061829,26.399999618530273,1609
3006477839.35,-0.0029464732108550606,500083.4371285915,3.2328088194219315e-21,15791593350.907455,0.0,0.0,0,0,0.0,0.0,0.0,0
0.0,-0.892231785583496,-1.3580638679504393,9.681528727722167,-0.0032815537305467225,0.007362541809522247,-5.220697214688598e+32,13872,48989,26.399999618530273,2.2560905275629555e-42,0.0,0
-0.004678346216678619,521408.1871052265,1.5394669193417405e-21,15993706382.543276,0.0,0.0,0.0,0,0,0.0,0.0,0.0,0
-0.8884692695617675,-1.3563303329467773,9.686880513763427,-0.0010178601616333007,0.005550906516737671,-0.0020570122960354613,26.399999618530273,1611,0,0.0,0.0,0.0,3210389914
490048.1871367693,2.6458454569919708e-23,15589472139.816196,0.0,0.0,0.0,0.0,0,0,0.0,0.0,228038705152.0,3219955493
-1.3550126953125,9.68200458908081,-0.0018209963039518737,0.006425535218028106,-0.0014247711996928406,3.4212028155894e-311,-29.549999237060547,52429,16866,-68.25,-0.894824206829071,-1.287207007408142,1092597146
3.232808819690842e-21,15791593360.089762,0.0,0.0,0.0,0.0,0.0,0,0,8.69459395625407e+23,-1.8489737510681152,-5.18035903951386e-07,3220552844
9.679580234527588,-0.0013024455537634276,0.008302611036248932,-0.0022481540240596007,3.4233248113803e-311,0.0,0.0,40960,48994,-1.2226073741912842,9.9052734375,-0.03728426992893219,992905331
15791593355.27078,0.0,0.0,0.0,0.0,0.0,2.1837568053070795e-25,43530,49132,-5.117735061495608e-33,-1.920637845993042,-387406048.0,1076060872
-0.002423090416961975,0.006977868166412048,-0.0017859291305392455,3.4254468330746e-311,0.0,-0.0036193840205669403,-1.208251953125,61850,16670,-0.03542005643248558,0.006125273182988167,-0.012516862712800503,1108175364
0.0,0.0,0.0,0.0,0.0,-0.894869864654541,1.5752566533209234e-33,56416,49141,98296340480.0,2.5527255535125732,9.728434025732079e-21,3211546110
0.007005904594595184,-0.001509426432261963,3.4275688288656e-311,0.0,-0.0035446174442768097,491929.6871472836,-0.03595269098877907,58517,15202,-0.017576871439814568,35.35353088378906,0.0,0
0.0,0.0,0.0,0.0,-0.8973683891296387,-1.3644047233581542,1.0680969426630484e-26,24526,16419,-25.35110855102539,-0.8148302435874939,-2.553606342020295e-16,1065210371
-0.0011566574587916565,3.4296908246566e-311,3006477839.275,-0.0018890386073721287,500710.6871274233,6.013542653048415e-24,-0.014114759862422943,51812,16909,0.0,0.0,0.0,0
0.0,0.0,0.0,-0.8991192329406738,-1.361316951751709,9.69382893447876,2.499892128373998e+23,46478,48948,0.055436499416828156,0.971118688583374,2.2987493710917664e-35,3210894648
3.4318128204475e-311,0.0,-0.003930665552616119,498828.93716363906,3.2328088198790795e-21,15791593353.089119,0.0,0,0,0.0,0.0,0.0,0
0.0,0.0,-0.8922129440307617,-1.3624371643066406,9.693776148223877,-0.0014585334241802978,-2.2916347433702473e-38,42170,16252,-3.862191299219894e-28,-0.8239203691482544,26.299999237060547,1618
0.0,-0.004827879369258881,503219.4371718168,2.308838381973198e-21,15993706377.089119,0.0,0.0,0,0,0.0,0.0,0.0,0
0.0,-0.8926831977844238,-1.3581337760925292,9.692315329742431,-0.0012733505190542602,0.0069137858531224065,-2.9060937719107856e-29,57382,48992,26.299999237060547,2.2687022137418788e-42,0.0,0
-0.0028717033565044403,515763.43716130254,2.856504368368625e-24,15791593351.452871,0.0,0.0,0.0,0,0,0.0,0.0,0.0,0
-0.8942451026916504,-1.3589951042175292,9.695879635620116,-0.0007493469465713501,0.006988813758417053,-0.0038731816205447387,26.299999237060547,1620,0,-29.399999618530273,30.0,-68.4000015258789,3211714560
500710.6871391058,7.312651182485858e-22,15791593348.180378,0.0,0.0,0.0,0.0,0,0,0.0,0.0,-2959005712384.0,3219948982
-1.3528467765808105,9.686817222595215,-0.001884399511168213,0.007172392108997345,-0.003236000360413971,3.440300777708e-311,0.0,0,0,0.0,-0.93310546875,-1.3254883289337158,1092632269
6.0135426537837176e-24,15791593353.089119,0.0,0.0,0.0,0.0,0.0,0,0,-1.833691381560698e-28,-1.846617341041565,1.3006095259589171e+29,3220546121
9.683867734527588,-0.0004897020578784179,0.007370557924348297,-0.0011587946455517578,3.442422773499e-311,0.0,0.0,31949,49007,-1.3183104991912842,9.962695121765137,-0.035686373710632324,1001865848
15993706377.634535,0.0,0.0,0.0,0.0,0.0,2.8772432917958226e+22,30075,49132,1.1170474152422824e+24,-1.9185283184051514,-2.3953753349695108e-37,1076060221
-0.0010989201267555236,0.006915470302500305,-0.0018795126106015015,3.44454476929e-311,0.0,-0.007669068872928619,-1.2106444835662842,56832,16670,-0.03222426399588585,0.003195794764906168,-0.008788435719907284,1108150691
0.0,0.0,0.0,0.0,0.0,-0.8922779922485351,2.2144317313177453e-07,34040,49141,-1.0208490975987301e-29,2.552809953689575,-2669225537699840.0,3211113424
0.006686758029656067,-0.0010564959708821106,3.4466667909843e-311,4133907983.275,-0.004977419077994228,496320.1871461153,-0.03408847749233246,22689,15220,-0.013049494475126266,35.35353088378906,0.0,0
0.0,0.0,0.0,0.0,-0.887114060974121,-1.3432695854187011,9.573297390952028e+30,24729,16419,2.356806610111693e+16,-0.7212027311325073,3.7533568448777397e-17,1065054578
-0.000792323708367157,3.4487887867753e-311,0.0,-0.00602417066693306,511372.93712275027,2.2540176650141264e-25,-0.015712657943367958,51812,16909,0.0,0.0,0.0,0
0.0,0.0,0.0,-0.887798525238037,-1.336524309539795,9.694091370391845,7.294601373209976e+23,27820,48973,-2.4340053009244464e+36,0.9776926040649414,2.7205232039029008e+20,3210892864
3.450910782566e-311,0.0,-0.0058746337890625,486284.9371379375,2.3088383817849605e-21,15791593354.725365,0.0,0,0,0.0,0.0,0.0,0
0.0,0.0,-0.8924957542419434,-1.3364740653991698,9.708874811553954,-0.0014401576127850342,-0.00029779275064356625,65449,16254,-4.132140247747884e-07,-0.8121921420097351,26.399999618530273,1627
0.0,-0.00257263146340847,491929.68713560107,4.6789361189079097e-20,15791593349.816626,0.0,0.0,0,0,0.0,0.0,0.0,0
0.0,-0.8911747894287109,-1.3385229721069336,9.709544995117188,4.034689023742676e-05,0.005124374639481811,-1.916007066546377e-12,51673,48987,26.299999237060547,2.2813138999208022e-42,-30.75,1105854464
-0.003768922313895473,515763.4371297598,7.312651183158135e-22,15791593356.361612,0.0,0.0,0.0,0,0,0.0,0.0,0.0,0
-0.8812412910461426,-1.3336039810180664,9.705062911224365,-0.0011841679126631164,0.006029143666202087,-0.0006083458836260987,26.299999237060547,1629,0,0.0,0.0,0.0,3211393434
518899.4371484518,4.358679760984098e-29,15993706370.54413,0.0,0.0,0.0,0.0,0,0,0.0,0.0,8.013311812402976e-29,3219931780
-1.3297988471984863,9.707732654571533,-0.001609621209684906,0.005689777050825501,-0.0003330882131498718,3.45939876573e-311,0.0,0,0,0.0,-0.858935534954071,-1.2943847179412842,1092396442
5.002725088460659e-22,15791593357.99786,0.0,0.0,0.0,0.0,0.0,0,0,-9.132073733815763e-25,-1.845009684562683,1527620948721664.0,3220524297
9.709435235595702,-0.0017740181426457214,0.0073347716974462894,0.00020640164096542358,3.461520761521e-311,0.0,0.0,40141,49013,-1.236962914466858,9.926806449890137,-0.03408847749233246,990617692
15993706377.089119,0.0,0.0,0.0,0.0,0.0,-19166292.0,27454,49132,-369098.75,-1.9156112670898438,-1.834088381623617e-17,1076062275
-0.00037599839591888427,0.006957668089682617,-0.0021515411982781984,3.463642757312e-311,3489662479.65,-0.006622317283938628,-1.33984375,43981,16671,-0.033822160214185715,0.0021305298432707787,-0.011451597325503826,1108175364
0.0,0.0,0.0,0.0,0.0,-0.8806983253479004,8.661692425234619e-32,11210,49141,97066256.0,2.5528335571289062,1.8297956864757425e-18,3210874052
0.007054813547678375,-0.0021450564010684204,3.4657647790064e-311,0.0,-0.00369415245950222,515136.18712391856,-0.03595269098877907,41052,15115,-0.013582127168774605,35.44764709472656,0.0,0
0.0,0.0,0.0,0.0,-0.8827530639648438,-1.3181637771606445,-2.5551117313258025e-15,25272,16419,-2.9757916298983765e+25,-0.7878231406211853,-7110.1865234375,1064873039
-0.0013294766386419679,3.4678867747973e-311,0.0,-0.004678346216678619,518272.18714962003,5.002725088258976e-22,-0.013049494475126266,27140,16909,0.0,0.0,0.0,0
0.0,0.0,0.0,-0.8898234313964843,-1.3180066146850586,9.68983288040161,-4.26553800961238e-12,47517,48985,-5.213488578796387,0.9784812331199646,29671.107421875,3210554975
3.4700087705883e-311,0.0,-0.00346984900534153,521408.1871250868,1.077481700442582e-21,15791593350.362041,0.0,0,0,0.0,0.0,0.0,0
0.0,0.0,-0.8877190841674805,-1.3190742652893066,9.68830570526123,-0.002442491545369873,1.0417315346885456e-28,28532,16249,-1.2259259155952435e+17,-0.7090365290641785,26.5,1636
3167540751.275,-0.005874636619927287,498201.68710989953,6.0135426533635445e-24,15993706380.361612,0.0,0.0,0,0,0.0,0.0,0.0,0
0.0,-0.8841674140930176,-1.3183160423278808,9.685664785003661,-0.002382170947094116,0.006688948479637604,-8.212711825581606e-19,43931,48990,26.399999618530273,2.2939255860997255e-42,0.0,0
-0.00272216834127903,518899.43713326455,3.2328088195832778e-21,15791593353.634535,0.0,0.0,0.0,0,0,0.0,0.0,0.0,0
-0.8860392700195312,-1.3215698364257813,9.701345779418945,-0.002151594461499634,0.006999433113190765,-0.001333264985266571,26.399999618530273,1638,0,0.0,0.0,0.0,3211714560
503846.6871297598,2.2540176648171704e-25,15791593349.816626,0.0,0.0,0.0,0.0,0,0,0.0,0.0,3.024247427493489e-17,3219950065
-1.3250385139465333,9.705058612060547,-0.0012963402570063782,0.0063181565636140444,-0.0035995218467115785,3.478496727849e-311,0.0,0,0,0.0,-0.959423840045929,-1.2584960460662842,1092597146
1.0466346911666986e-20,15791593347.634962,0.0,0.0,0.0,0.0,0.0,0,0,-12229.017578125,-1.8480336666107178,3.3550014626136064e+16,3220514622
9.704487907409668,-0.002537439895481415,0.00576286750644043,-0.001240653558995514,3.4806187236397e-311,3328601615.5375,-69.0,45056,48997,-1.2656738758087158,9.931591987609863,-0.035686373710632324,989092001
15791593353.634535,0.0,0.0,0.0,0.0,0.0,0.0,33362,49132,-190481792.0,-1.915343165397644,-7.656250090803951e-05,1076062058
-0.0005356881916853333,0.0059261592275564575,-0.0023352859964254763,3.4827406935273e-311,0.0,-0.0024230964481830597,-1.2226073741912842,18893,16671,-0.033289529383182526,0.0034621108788996935,-0.01491370890289545,1108200036
0.0,0.0,0.0,0.0,0.0,-0.8944768463134766,-6.457778948336509e-22,9212,49141,1.2832000255584717,2.553053855895996,-4.106370026292476e-30,3211337670
0.006279414227922363,-0.0026899458142567445,3.4848626893183e-311,0.0,-0.00219879113137722,506355.437093544,-0.03621900454163551,28810,15057,-0.01491370890289545,35.35353088378906,0.0,0
0.0,0.0,0.0,0.0,-0.8926033081054687,-1.3206791618347167,3.7750075325898915e+34,25810,16419,9.583030661702342e-28,-0.8823144435882568,2.5230254195629075e-25,1065098431
-0.0005204149629386902,3.4869847110126e-311,0.0,-0.001889037899672985,493184.187126255,1.0518748133897894e-24,-0.014381076209247112,2467,16909,0.0,0.0,0.0,0
0.0,0.0,0.0,-0.895260228729248,-1.3219209846496582,9.697479597473144,153.0600128173828,29481,48988,-1.004389209445603e-34,0.9949201941490173,5.895852324094991e+22,3210895770
3.4891067068036e-311,2362234383.3875,-0.004379275291751128,490675.4371344328,3.2328088196370597e-21,15993706376.543703,0.0,0,0,0.0,0.0,0.0,0
0.0,0.0,-0.891878955078125,-1.318444718170166,9.693659098815917,-0.0017336179891868592,1274850.5,80,16251,2.2170314900333415e-14,-0.9073826670646667,26.399999618530273,1645
0.0,-0.0024978630244731903,504473.687107563,1.250227897992523e-22,15791593356.361612,0.0,0.0,0,0,0.0,0.0,0.0,0
0.0,-0.898102611541748,-1.321108405303955,9.69463927078247,-0.001386454969772644,0.007137371540903473,2.0044797193927984e-28,41885,48993,26.399999618530273,2.306537272278649e-42,0.0,0
-0.0028717033565044403,505100.93710873125,2.6458454567188585e-23,15791593356.907028,0.0,0.0,0.0,0,0,0.0,0.0,0.0,0
-0.8990701850891113,-1.3235427413940428,9.686693593597411,-0.0019077021705462647,0.00632969470895752,-0.0021485717736831667,26.399999618530273,1647,0,0.0,0.0,0.0,3210349773
506355.4371472836,3.200583419119013e-20,15993706370.54413,0.0,0.0,0.0,0.0,0,0,0.0,0.0,-2.1035309556730683e+22,3219950243
-1.3245021278381348,9.684525357055664,-0.0019722372212181093,0.005547957065850677,-0.003320981830214386,3.4975946899675e-311,-29.25,0,16874,-68.4000015258789,-1.0670897960662842,-1.2226073741912842,1092484250
7.312651183359819e-22,15791593344.362469,0.0,0.0,0.0,0.0,0.0,0,0,-3.2602388832118477e+27,-1.8475327491760254,126443839488.0,3220521570
9.691558003997802,-0.0004510729065322876,0.004542287524023437,-0.002504543198342285,3.499716711662e-311,0.0,0.0,55706,48995,-1.2178223133087158,9.974658012390137,-0.03089268133044243,998434390
15791593357.452444,0.0,0.0,0.0,0.0,0.0,15584.4609375,41249,49132,-3533281.75,-1.915568470954895,-2.1302877934296767e-23,1076060742
-0.0006094111480548095,0.006195657812214966,-0.002236236378263397,3.501838707453e-311,0.0,-0.004080198705196381,-1.248925805091858,44288,16670,-0.033289529383182526,0.0055926404893398285,-0.013049494475126266,1108175364
0.0,0.0,0.0,0.0,0.0,-0.8920467346191406,-3.410524663977684e+25,13697,49141,1.1871651648055138e+23,2.552877426147461,9.79634373621252e-10,3208896908
0.0050418832252835085,-0.0007833222239445496,3.5039607032437e-311,0.0,-0.008267208933830261,499456.18713560107,-0.034354791045188904,64638,15167,-0.012783179059624672,35.35353088378906,0.0,0
0.0,0.0,0.0,0.0,-0.8888631851196289,-1.3286452507019042,7.933575408338652e+19,24970,16419,-1.7603065895541174e-28,-0.8850936889648438,0.13305369019508362,1065016898
-0.0014167550848667907,3.5060826990347e-311,2684356111.425,-0.006024173497814899,512000.1871250868,1.0518748133635287e-24,-0.012783179059624672,27140,16909,0.0,0.0,0.0,0
0.0,0.0,0.0,-0.8930663467407226,-1.3308619369506836,9.691940255737304,-9.198538220710804e+34,23573,48973,-6.463707573464619e-15,0.9648750424385071,-2178811676327936.0,3210265145
3.5082046689223e-311,0.0,-0.00272216834127903,524800.3742244721,2.856504368368625e-24,15993706384.089762,0.0,0,0,0.0,0.0,0.0,0
0.0,0.0,-0.885623110961914,-1.3233213905334473,9.689292868041992,-0.00020146147717727662,-2.2741137593809466e+29,52754,16251,215907083223040.0,-0.8122168779373169,26.399999618530273,1654
0.0,-0.0035446174442768097,510745.68712275027,1.4771930171157608e-20,15589472139.816196,0.0,0.0,0,0,0.0,0.0,0.0,0
0.0,-0.881841005706787,-1.327867961883545,9.68777010421753,-0.0020324779246617126,0.006421746871403503,2.4590362954768352e-06,46369,48987,26.399999618530273,2.3191489584575723e-42,0.0,0
-0.001515197567641735,509491.4371040583,2.6458454567818843e-23,15791593350.362041,0.0,0.0,0.0,0,0,0.0,0.0,0.0,0
-0.879760733795166,-1.3307534858703614,9.69137613067627,-0.0010843393198875428,0.00548513309616745,-0.003413047308465729,26.399999618530273,1656,0,-29.100000381469727,28.350000381469727,-68.8499984741211,3211594138
506355.43713209627,5.002725088460659e-22,15791593357.452444,0.0,0.0,0.0,0.0,0,0,0.0,0.0,-1.201669887456857e-14,3219937797
-1.3270869346618652,9.694001686096192,-0.001532449459727478,0.005844886209548493,-0.0011498131348371887,3.516692652086e-311,0.0,0,0,0.0,-0.906787097454071,-1.2537109851837158,1092408986
4.358679760984098e-29,15993706377.089119,0.0,0.0,0.0,0.0,0.0,0,0,1.2788211808586178e-25,-1.8464863300323486,4.6647595427687066e+33,3220523997
9.694787423706055,-0.002175429753092041,0.0068498633294970706,-0.0032365795979470828,3.518814647877e-311,0.0,0.0,35635,49025,-1.177148461341858,9.883740425109863,-0.035153742879629135,999578209
15791593348.180378,0.0,0.0,0.0,0.0,0.0,-2.4926162247902822e+17,10189,49132,-5.2979842899225104e-17,-1.9161850214004517,2.153320201614406e-05,1076060769
-0.0007372229057920838,0.006604220010139008,-0.0017959293003637696,3.520936643668e-311,0.0,-0.00332031212747097,-1.2345702648162842,59341,16670,-0.03408847749233246,0.0013315811520442367,-0.014114759862422943,1108175364
0.0,0.0,0.0,0.0,0.0,-0.8750171485900878,126443839488.0,16749,49141,5.877242846269027e-19,2.552978754043579,-5.226762856048886e+17,3210556011
0.005712413919935608,-0.0010647384543992615,3.523058639459e-311,2684356111.2,-0.003930668383395642,487539.43710055354,-0.03408847749233246,64638,15167,-0.012250546365976334,35.2594108581543,0.0,0
0.0,0.0,0.0,0.0,-0.8786825782775879,-1.3193615615844727,-1087.8975830078125,24900,16419,0.28759682178497314,-0.8835113644599915,-25935769600.0,1064861792
-0.0009736117404257202,3.52518063525e-311,0.0,-0.0018516536802053452,473740.9371274233,5.00272508812452e-22,-0.013315810821950436,2467,16909,0.0,0.0,0.0,0
0.0,0.0,0.0,-0.8776079742431641,-1.3226333374023438,9.700146836090088,3.2987873499332928e+35,1049,48992,-4064499.75,0.9645605683326721,-6.228635356819723e-06,3211827417
3.527302631041e-311,0.0,-0.0024230964481830597,500083.43712158204,1.051874813442311e-24,15993706377.634535,0.0,0,0,0.0,0.0,0.0,0
0.0,0.0,-0.8753275108337402,-1.3231662467956542,9.68602412033081,0.00013674666313308716,-6312198406144.0,33477,16248,-8.813911964493654e+23,-0.8128356337547302,26.399999618530273,1663
3006477839.425,-0.0023483294246886997,510118.68713326455,2.3088383814353764e-21,15791593361.4533,0.0,0.0,0,0,0.0,0.0,0.0,0
0.0,-0.8790964942932129,-1.3192489234924316,9.692772573852539,-0.000997813216665497,0.005988297433263703,-2.3592407490992724e+33,35678,48950,26.399999618530273,2.3317606446364956e-42,0.0,0
-0.0037689208984375,504473.68715195655,7.3126511834942735e-22,15791593359.634106,0.0,0.0,0.0,0,0,0.0,0.0,0.0,0
-0.8752169662475585,-1.322614981842041,9.693013439178467,-0.0014500379403613282,0.0064863285273941045,-0.0018849521170906068,26.399999618530273,1665,0,0.0,0.0,0.0,3211072307
508236.9371472836,1.2628159452127438e-23,15791593353.634535,0.0,0.0,0.0,0.0,0,0,0.0,0.0,8.776801402844196e+22,3219921593
-1.3239101516723633,9.699030249786377,-0.0022072878174131776,0.00644857821920166,-0.004332590221231689,3.535790536495e-311,0.0,0,0,0.0,-0.906787097454071,-1.2178223133087158,1092562022
4.358679761184452e-29,15993706377.089119,0.0,0.0,0.0,0.0,0.0,0,0,-6.530172046550001e-14,-1.8430085182189941,-14535780.0,3220513720
9.699416987609863,-0.002299273400832367,0.007643991329490356,-0.0008048738549179077,3.537912532286e-311,3972847119.2,-68.55000305175781,22118,48990,-1.2106444835662842,9.895703315734863,-0.03408847749233246,991761511
15791593362.271423,0.0,0.0,0.0,0.0,0.0,1.0247165933822935e+18,54523,49131,-1.7280909904546103e+19,-1.9151175022125244,-3.5360000133514404,1076062362
-0.0018173477732835387,0.005993843466195679,-0.0028798624881878664,3.5400345539805e-311,0.0,-0.0018516536802053452,-1.201074242591858,3840,16671,-0.034354791045188904,0.006391589529812336,-0.009587383829057217,1108200036
0.0,0.0,0.0,0.0,0.0,-0.8730311965942382,3.652530751810379e-13,8850,49141,-1.261816291796852e+21,2.5531389713287354,134664740143104.0,3210890437
0.007012396049707641,-0.0008798085495750427,3.5421565497715e-311,0.0,-0.00264739990234375,500710.6871180773,-0.035153742879629135,41052,15243,-0.01491370890289545,35.35353088378906,0.0,0
0.0,0.0,0.0,0.0,-0.8732605102539063,-1.3266087928771972,-4.9081845204208414e+27,26362,16419,-0.06587012857198715,-0.8146670460700989,-5.3711359436814425e+32,1065060223
-0.0036902224549136354,3.5442785455625e-311,0.0,-0.00294647179543972,503846.68710172176,1.7026092816344132e-31,-0.011185280978679657,51812,16909,0.0,0.0,0.0,0
0.0,0.0,0.0,-0.8695661079406738,-1.3186185539245605,9.695734697723388,-943103615696896.0,19057,48982,1.2541251294337507e-18,0.9882950186729431,2.720466645024768e+16,3211575102
3.5464005413534e-311,3006477839.425,-0.0038436907527881203,499456.18711924553,5.002725088460659e-22,15791593361.180592,0.0,0,0,0.0,0.0,0.0,0
0.0,0.0,-0.8711051338195801,-1.3222694038391112,9.696680588531494,-0.0014783340267489624,-3.166900335721534e-14,8526,16257,-2.641636780544964e-39,-0.884177565574646,26.5,1672
0.0,-0.00369415245950222,508864.1871250868,1.1158220188529616e-26,15791593353.089119,0.0,0.0,0,0,0.0,0.0,0.0,0
0.0,-0.8737115112304688,-1.3253946342468261,9.695861878204346,-0.0007642539906706238,0.0079501416683992,-7084220928.0,22286,48983,26.5,2.344372330815419e-42,0.0,0
-0.00309600867331028,490675.4371461153,2.308838381650505e-21,15791593351.998287,0.0,0.0,0.0,0,0,0.0,0.0,0.0,0
-0.874377059173584,-1.316951412963867,9.695409568786621,-0.0014595054779714966,0.0068785522321427916,-0.0007845073306214905,26.5,1674,0,0.0,0.0,0.0,3211433574
480640.18714261055,2.69279952174004e-22,15791593354.17995,0.0,0.0,0.0,0.0,0,0,0.0,0.0,5.330974213715209e-35,3219906939
-1.3200425117492676,9.687989473724365,-0.0019161044437277222,0.007022449482753601,-0.000785266331526947,3.554888602227e-311,-29.549999237060547,26214,16876,-68.4000015258789,-0.894824206829071,-1.251318335533142,1092544461
2.3088383818387425e-21,15791593354.725365,0.0,0.0,0.0,0.0,0.0,0,0,2674288.25,-1.842868447303772,7.007873954700607e-25,3220515037
9.695226499176025,-0.0020099475819944763,0.007976633463160706,-0.003595939895070038,3.5570105721145e-311,0.0,0.0,49152,49000,-1.2895996570587158,9.979443550109863,-0.036751639097929,999578209
15791593353.089119,0.0,0.0,0.0,0.0,0.0,-1.5265352945141124e+32,62255,49131,-293789499392.0,-1.9153544902801514,-1.6558685285460473e+28,1076061215
-0.002790054038944855,0.005841630495138245,-0.0014124207902224731,3.5591325679055e-311,0.0,-0.0027969367802143097,-1.2776367664337158,31744,16670,-0.033289529383182526,0.0037284272257238626,-0.014381076209247112,1108200036
0.0,0.0,0.0,0.0,0.0,-0.8740622108459473,-4492790805299200.0,18414,49141,2.854227992533359e-35,2.5530359745025635,-5.8140014538563025e-30,3209870492
0.006181989138014069,-0.0016013986998757936,3.5612545636964e-311,0.0,-0.004678346216678619,518272.1871344328,-0.03302321210503578,22689,15092,-0.01651160605251789,35.35353088378906,0.0,0
0.0,0.0,0.0,0.0,-0.8737397361755371,-1.3287707862854004,0.0011187499621883035,26480,16419,1.6701573133468628,-0.7152917981147766,1.0661252188416768e-14,1065376988
-0.002243426913157196,3.563376533584e-311,2845416975.425,-0.003021241649764761,510745.68715312483,2.692799522311475e-22,-0.011185280978679657,27140,16909,0.0,0.0,0.0,0
0.0,0.0,0.0,-0.8748786407470703,-1.3296255722045898,9.695488972473145,-2.353700046017228e-37,30001,48997,1.5880292098504068e+38,0.9927054047584534,1.6389264945182447e-10,3211084604
3.565498529375e-311,0.0,-0.00294647179543972,502592.1871472836,7.312651183628729e-22,15791593359.08869,0.0,0,0,0.0,0.0,0.0,0
0.0,0.0,-0.8800860496520996,-1.3304635353088379,9.703561082458496,-0.001092182329243927,-6.829491771872946e-34,26809,16256,7389142266675200.0,-0.8472961187362671,26.399999618530273,1681
0.0,-0.00309600867331028,506982.6871577978,2.6458454567608756e-23,15589472141.452444,0.0,0.0,0,0,0.0,0.0,0.0,0
0.0,-0.8859125007629394,-1.3363358192443848,9.698930995178223,-0.0015072160085723876,0.005879593856216431,-5.698558038214589e-28,19928,48994,26.399999618530273,2.3569840169943423e-42,0.0,0
-0.00257263146340847,490048.187126255,1.046634691328045e-20,15791593355.816196,0.0,0.0,0.0,0,0,0.0,0.0,0.0,0
-0.8836842628479004,-1.3360919258117676,9.696906313323975,-0.002209904373166199,0.007495526757641449,-0.001965952161088715,26.399999618530273,1683,0,-29.25,28.950000762939453,-68.55000305175781,3211714560
519526.6871250868,3.2328088195026046e-21,15791593360.089762,0.0,0.0,0.0,0.0,0,0,0.0,0.0,-3.0212402180040954e-07,3219927779
-1.3379945861816407,9.698314756774902,-0.002472132528098755,0.007589503053961792,-0.0014220414595942689,3.573986538442e-311,0.0,0,0,0.0,-0.887646496295929,-1.3183104991912842,1092469197
2.6927995227148406e-22,15993706380.361612,0.0,0.0,0.0,0.0,0.0,0,0,2.2144317313177453e-07,-1.846778154373169,-5.004882768844254e-05,3220532967
9.694932847595215,-0.0022086726611705017,0.007132231640034943,-0.002508005307735596,3.576108534233e-311,0.0,0.0,31949,49007,-1.2656738758087158,9.948339462280273,-0.03355584293603897,1002437758
15791593360.362469,0.0,0.0,0.0,0.0,0.0,2.603542617913118e+24,35727,49132,5177.34375,-1.9177148342132568,6924284198912.0,1076059946
-0.001864399171519165,0.008581943343164979,-0.0007937618153459168,3.578230530024e-311,0.0,-0.005126953125,-1.225000023841858,51814,16670,-0.03595269098877907,0.007190538104623556,-0.009587383829057217,1108175364
0.0,0.0,0.0,0.0,0.0,-0.8882275444030762,4.620233232457971e-13,26978,49141,111.00160217285156,2.5529353618621826,1.3687154801864322e-24,3209528096
0.007233804603312531,-0.001245147643304138,3.580352525815e-311,3328601615.2,-0.0042297384139146745,500710.6871250868,-0.03488742560148239,34931,15022,-0.015712657943367958,35.35353088378906,0.0,0
0.0,0.0,0.0,0.0,-0.8898308708190917,-1.337614241027832,4197495603200.0,25382,16419,-0.02698390744626522,-0.8710084557533264,51891.84375,1065186319
2.3462449042358398e-05,3.5824744957027e-311,0.0,-0.00346984900534153,499456.1871379375,6.893566776945272e-20,-0.012250546365976334,27140,16909,0.0,0.0,0.0,0
0.0,0.0,0.0,-0.8932315841674804,-1.3403053306579589,9.69106393661499,-922171670528.0,4560,48993,12572642304.0,0.9848700761795044,555640.5,3210893940
3.5845964914937e-311,0.0,-0.005575560033321381,487539.4371437788,2.6927995219753366e-22,15589472139.27078,0.0,0,0,0.0,0.0,0.0,0
0.0,0.0,-0.8903201530456543,-1.341181948852539,9.686653742218017,-0.0025189841892539976,-168594126143488.0,43168,16250,-1.301846506298409e+18,-0.8812060952186584,26.299999237060547,1690
0.0,-0.00497741624712944,510745.68713560107,2.2540176656049946e-25,15791593349.27121,0.0,0.0,0,0,0.0,0.0,0.0,0
0.0,-0.8911393493652343,-1.3474340171813965,9.681294441986084,-0.000841638793513794,0.006811047756875916,-2.1288662992446916e-06,22255,48997,26.399999618530273,2.3695957031732657e-42,-29.100000381469727,1106090394
-0.002273560985719314,491929.6871344328,2.6458454567608756e-23,15791593350.907455,0.0,0.0,0.0,0,0,0.0,0.0,0.0,0
-0.894688402557373,-1.3396403808593749,9.686044046020507,-0.0010993662062350465,0.006840189396903839,-0.0001587110840725708,26.399999618530273,1692,0,0.0,0.0,0.0,3210309632
505100.9371391058,1.0466346912957758e-20,15589472140.907028,0.0,0.0,0.0,0.0,0,0,0.0,0.0,0.5783999562263489,3219956171
-1.3456285179138183,9.69096146697998,-0.0020248146786776733,0.005800338182720337,-0.0021412414228330996,3.593084500561e-311,0.0,0,0,0.0,-0.882861316204071,-1.2417480945587158,1092582093
1.0774817003753542e-21,15791593360.362469,0.0,0.0,0.0,0.0,0.0,0,0,1.0327799270814297e-36,-1.847862958908081,-1.680951641134842e-34,3220531436
9.683713188934325,-0.002006758446611023,0.0065591193773884586,-0.0015082146939743041,3.595206496352e-311,0.0,0.0,36045,49010,-1.2178223133087158,9.876562118530273,-0.033289529383182526,1000722029
15791593361.726007,0.0,0.0,0.0,0.0,0.0,-8.775260941774672e-23,39935,49132,3.0136952232622367e-34,-1.917494773864746,214958.078125,1076061501
-0.002010440266792755,0.007817735957813111,-0.0011504056881756592,3.597328492143e-311,2845416975.2375,-0.0039306683834468,-1.239355444908142,11674,16670,-0.03488742560148239,0.004793691914528608,-0.011717913672327995,1108175364
0.0,0.0,0.0,0.0,0.0,-0.894652140045166,8.390751396576111e+33,34068,49141,2.309570299985353e-05,2.5528619289398193,1.6509974572360416e+33,3208908446
0.007433814657705689,-0.004323329078604584,3.599450487934e-311,0.0,-0.00219879113137722,501337.68711106776,-0.03595269098877907,5223,15133,-0.011717913672327995,35.35353088378906,0.0,0
0.0,0.0,0.0,0.0,-0.8891673042297363,-1.3420603240966797,-6.410243499643372e+17,24293,16419,-4.4184474430796696e+29,-0.8851605653762817,-65316732.0,1065232552
-0.001872342049415741,3.601572483725e-311,0.0,-0.0058746337890625,520780.93714962003,5.00272508812452e-22,-0.013049494475126266,27140,16909,0.0,0.0,0.0,0
0.0,0.0,0.0,-0.888000959777832,-1.3393044105529786,9.688659320831299,6.990743033033523e+17,36737,48956,367807648.0,0.9798367023468018,2.9425515843395367e-12,3211038551
3.6036944795157e-311,2845416975.3875,-0.00354461885969215,500083.4371297598,3.2005834189038843e-20,15791593352.543703,0.0,0,0,0.0,0.0,0.0,0
0.0,0.0,-0.8942560935974121,-1.3354250694274903,9.691580883026123,-0.001478733500909729,1.055982465913985e-06,39626,16244,2.5646631657502755e+28,-0.8780363202095032,26.399999618530273,1699
0.0,-0.00264739990234375,482521.68712275027,2.6927995221097916e-22,15791593353.634535,0.0,0.0,0,0,0.0,0.0,0.0,0
0.0,-0.8938195976257324,-1.3371864929199218,9.68940640335083,-0.0010655773501368714,0.0057167016092611695,1.1963441025171607e-37,17254,48983,26.399999618530273,2.382207389352189e-42,0.0,0
-0.0032455436885356903,491302.6871461153,1.5394669191938396e-21,15791593352.543703,0.0,0.0,0.0,0,0,0.0,0.0,0.0,0
-0.8855442306518554,-1.3333455078125,9.697403072357178,-0.0016844826674125672,0.006612069677398072,-0.0004252469020387268,26.299999237060547,1701,0,0.0,0.0,0.0,3210911744
513881.6871507883,6.7733643698456635e-21,15791593359.634106,0.0,0.0,0.0,0.0,0,0,0.0,0.0,-1007599296.0,3219945412
-1.3256863792419433,9.697875756072998,-0.0015075089562902831,0.00597003480621399,-0.0021441442684013365,3.612182436776e-311,-29.549999237060547,26214,16876,-68.0999984741211,-0.918749988079071,-1.263281226158142,1092551987
1.051874813442311e-24,15993706377.634535,0.0,0.0,0.0,0.0,0.0,0,0,-2.697799850672009e-23,-1.847430944442749,1.2749655380069274e-35,3220522561
9.707474293518066,-0.0019312778039341737,0.007244563774042511,-0.003141817669110565,3.6143044584706e-311,0.0,0.0,38502,49002,-1.2584960460662842,9.92919921875,-0.03462110832333565,998434390
15791593355.27078,0.0,0.0,0.0,0.0,0.0,0.033149998635053635,27278,49132,-5.004882768844254e-05,-1.9161794185638428,-7.549645184551648e-35,1076062508
-0.0009607220408383179,0.007087623692082672,-0.0027814720023910523,3.6164264542615e-311,0.0,-0.0032455436885356903,-1.287207007408142,52122,16669,-0.035153742879629135,0.002396845957264304,-0.014381076209247112,1108200036
0.0,0.0,0.0,0.0,0.0,-0.8848800285339355,-5.5966772194243385e+28,20750,49141,-2.2541920761093816e+18,2.553354024887085,-1.4364120235701699e+18,3210882058
0.005059586588508148,-0.0006004096636322021,3.6185484500525e-311,0.0,-0.00346984900534153,514508.93713092804,-0.033289529383182526,5223,15133,-0.013315810821950436,35.35353088378906,0.0,0
0.0,0.0,0.0,0.0,-0.8829965087890624,-1.329343285369873,266073216.0,27263,16419,4.9524123710888346e+17,-0.8835703730583191,-1.0261776154252034e+27,1064922400
-0.002687196100450134,3.620670471747e-311,3972847119.35,-0.004977419078045386,491929.68715312483,7.312651183292591e-22,-0.014114759862422943,27140,16909,0.0,0.0,0.0,0
0.0,0.0,0.0,-0.8865132995605468,-1.3330098739624023,9.706143197631835,2.4941065126404165e-16,37757,48970,3.7419655661788615e-21,0.9778032302856445,1.4518407535198107e-30,3210171274
3.622792467538e-311,0.0,-0.00346984900534153,491302.6871344328,2.308838381704287e-21,15791593356.907028,0.0,0,0,0.0,0.0,0.0,0
0.0,0.0,-0.8867660903930664,-1.3306943817138672,9.698576258087158,-0.0006193181072418213,-1.8223575442705613e+17,37164,16248,5.281762787490152e-05,-0.8840665817260742,26.5,1708
0.0,-0.004678346216678619,503219.437116909,1.5675359593e-314,15993706376.543703,0.0,0.0,0,0,0.0,0.0,0.0,0
0.0,-0.8850815284729003,-1.3298957092285155,9.695425643920899,0.0006901581917510987,0.007368766948527527,5.3300154831958935e-06,30103,48956,26.5,2.3948190755311124e-42,0.0,0
-0.00197448767721653,509491.43713209627,7.312651182821997e-22,15791593356.361612,0.0,0.0,0.0,0,0,0.0,0.0,0.0,0
-0.8878787887573242,-1.3321300407409669,9.692305684661864,-0.0014197245094618226,0.0057056095433972165,-0.0016001936194908143,26.399999618530273,1710,0,-30.0,29.100000381469727,-67.94999694824219,3211553997
490048.1871250868,2.2540176652110823e-25,15993706368.907885,0.0,0.0,0.0,0.0,0,0,0.0,0.0,-5.004882768844254e-05,3219951606
-1.3294683723449707,9.693581676483154,-0.0014218816699299623,0.006510503372023163,-0.0018746789732562257,3.6312804247983e-311,0.0,0,0,0.0,-0.870898425579071,-1.251318335533142,1092471706
1.2502278980429438e-22,15791593361.4533,0.0,0.0,0.0,0.0,0.0,0,0,1.194228279784148e+32,-1.8483738899230957,6.596849317559723e-33,3220530357
9.686822718048095,-0.0002868823685545349,0.006074550562475891,-0.0005187704609768677,3.633402420589e-311,0.0,0.0,45056,48997,-1.284814476966858,9.974658012390137,-0.03648532181978226,999006300
15791593349.816626,0.0,0.0,0.0,0.0,0.0,4.2989850568275756e-10,33237,49132,-7.8623834849406315e+34,-1.9166935682296753,8113.35693359375,1076060654
-0.0008341619688047791,0.005924634567842865,-0.00242028078203125,3.635524390477e-311,0.0,-0.0027969367802143097,-1.263281226158142,13875,16671,-0.03542005643248558,0.002396845957264304,-0.011984230019152164,1108175364
0.0,0.0,0.0,0.0,0.0,-0.8975144485473633,-6.596849317559723e-33,25070,49141,1.8781668768073156e-34,2.5530035495758057,9.928948583887328e-21,3210664024
0.006544598491644593,-0.003233796594627075,3.637646386268e-311,3006477839.575,-0.0036941538749260872,510118.6871437788,-0.03302321210503578,28810,15313,-0.013582127168774605,35.35353088378906,0.0,0
0.0,0.0,0.0,0.0,-0.8990212120056152,-1.338855465698242,5.570729936976538e+24,26190,16419,1.152034291437303e-18,-0.934245228767395,3.9100235893925484e-25,1065161291
-0.00123687187027359,3.639768382059e-311,0.0,-0.00452880933880806,517644.9371297598,1.2628159451392135e-23,-0.013315810821950436,51812,16909,0.0,0.0,0.0,0
0.0,0.0,0.0,-0.8933979804992676,-1.340678797149658,9.6939034034729,-151002.5,10262,48989,6.824369481770841e-32,0.997822642326355,-867958934994944.0,3209293355
3.641890403753e-311,0.0,-0.005426026880741119,506982.68714027404,2.6458454568869277e-23,15589472131.634962,0.0,0,0,0.0,0.0,0.0,0
0.0,0.0,-0.8932715850830077,-1.3443579841613769,9.699970719909668,-0.000988745153216095,-1.4523053954301952e+17,50954,16255,6.484267430252547e-24,-0.9045531153678894,26.399999618530273,1717
0.0,-0.0024230964481830597,511372.93715312483,5.002725088595114e-22,15993706378.17995,0.0,0.0,0,0,0.0,0.0,0.0,0
0.0,-0.9017088623046875,-1.3391793235778808,9.699374781036378,-0.0030989341179522706,0.0063739830775811765,-8.765855291359881e+21,63193,49000,26.399999618530273,2.4074307617100357e-42,-29.549999237060547,1105697178
-0.0027969381956381768,509491.437107563,6.013542653678674e-24,15589472137.089119,0.0,0.0,0.0,0,0,0.0,0.0,0.0,0
-0.8944891082763672,-1.3439516944885253,9.689473956298828,-0.0015749202209196472,0.006749408893869629,-0.002424215602514801,26.399999618530273,1719,0,0.0,0.0,0.0,3211594138
483776.1871274233,4.9328747857410855e-26,15791593354.17995,0.0,0.0,0.0,0.0,0,0,0.0,0.0,4.2989850568275756e-10,3219938581
-1.3402583763122558,9.68831935043335,-0.0010594653954771422,0.006015335176044922,-0.002333781310419922,3.6503783610136e-311,0.0,0,0,0.0,-0.9618164300918579,-1.251318335533142,1092551987
2.3088383817849605e-21,15993706385.180592,0.0,0.0,0.0,0.0,0.0,0,0,1.6849403135749133e+21,-1.848751187324524,-1.7630340633136795e-17,3220532385
9.683178672027587,-0.0007150121424534607,0.007376882931893768,-0.00043812328582077027,3.6525003568046e-311,0.0,0.0,13107,49003,-1.244140625,9.943554878234863,-0.03728426992893219,984516723
15993706374.362041,0.0,0.0,0.0,0.0,0.0,-3.191828579218736e-09,45056,49132,-4.2095470622718034e+18,-1.917052149772644,-1.5735626135437997e-09,1076060370
-0.00035001260176101685,0.00713190540280365,-0.0007993944010127259,3.654622378499e-311,3328601615.35,-0.0029464732108550606,-1.284814476966858,6349,16671,-0.032490577548742294,0.004793691914528608,-0.011185280978679657,1108175364
0.0,0.0,0.0,0.0,0.0,-0.8940830429077148,2.34515364064537e+28,25093,49141,4.379882739158347e-05,2.552586317062378,-1.8468004725491483e-07,3209580468
0.007097284308870544,-0.00160909523537323,3.656744400193e-311,0.0,-0.005575560033321381,510118.68714261055,-0.03595269098877907,28810,15185,-0.012250546365976334,35.2594108581543,0.0,0
0.0,0.0,0.0,0.0,-0.8973959411621093,-1.3327644477844238,0.0020843748934566975,25030,16419,6.163286547788971e-11,-0.7275193333625793,9.206006824988391e-39,1065064860
-0.0017002086335414124,3.658866395984e-311,0.0,-0.00272216834127903,473113.68716597557,3.2328088197177333e-21,-0.018642134964466095,27140,16909,0.0,0.0,0.0,0
0.0,0.0,0.0,-0.8955323471069335,-1.3286695877075194,9.69401753692627,-1.4246973177510874e+32,9805,48997,3.0313895242964803e-24,0.9539244771003723,-4.424402868608013e-05,3210550914
3.660988391775e-311,0.0,-0.0035446174442768097,498201.68712041376,1.0774817003887997e-21,15791593357.452444,0.0,0,0,0.0,0.0,0.0,0
0.0,0.0,-0.8892026695251465,-1.3298861763000487,9.695312519836426,-0.0021932463006622315,-6.371538687835516e-35,38721,16248,1.1310244079416418e-20,-0.9276218414306641,26.299999237060547,1726
2201171471.425,-0.0020492575315586236,496320.18713326455,6.77336437000701e-21,15993706375.998287,0.0,0.0,0,0,0.0,0.0,0.0,0
0.0,-0.8886210861206054,-1.3293784637451171,9.697483148956298,-0.0027174030049067687,0.005931625365656281,-2.462421031724905e-36,19727,48983,26.299999237060547,2.420042447888959e-42,0.0,0
-0.00272216834127903,485030.6871344328,6.773364369415406e-21,15589472135.998287,0.0,0.0,0.0,0,0,0.0,0.0,0.0,0
-0.887551902770996,-1.3309544624328613,9.702606369018554,-0.0013017065265660095,0.006147294807151489,-0.001516603651350403,26.299999237060547,1728,0,0.0,0.0,0.0,3210831462
498201.68713209627,2.692799522076178e-22,15791593346.54413,0.0,0.0,0.0,0.0,0,0,0.0,0.0,1.8409850235917435e+18,3219941808
-1.3268532844543457,9.698755738830567,-0.0008115783629161072,0.006605331879886474,-0.001333804275383606,3.6694763490357e-311,0.0,0,0,0.0,-0.954638659954071,-1.2584960460662842,1092544461
2.69279952200895e-22,15993706383.634106,0.0,0.0,0.0,0.0,0.0,0,0,-7.074105112935918e+20,-1.8471250534057617,-54.7327995300293,3220514102
9.692392864227294,-0.0005224522811585998,0.0062018097142907715,-0.0015121228828471375,3.6715983448266e-311,3328601615.3875,-68.25,38502,49002,-1.251318335533142,9.919629096984863,-0.03542005643248558,0
15791593356.361612,0.0,0.0,0.0,0.0,0.0,1.2520205683760589e-24,15049,49132,-3.75488270947244e-05,-1.9145148992538452,7.456654578745634e+23,1076060698
-0.0010466422749165344,0.006553227133517151,-0.0023265241964993285,3.6737203406176e-311,0.0,-0.00294647179543972,-1.2106444835662842,62157,16669,-0.03542005643248558,0.0050600082613527775,-0.014647392556071281,1108200036
0.0,0.0,0.0,0.0,0.0,-0.8821180587768555,-2.1302877934296767e-23,1200,49141,-5.2366962811399544e-21,2.552790880203247,188.15794372558594,3209516915
0.00560582089803772,-0.0028694295546891784,3.675842310505e-311,0.0,-0.0032455436885356903,498828.9371250868,-0.03355584293603897,5223,15133,-0.010386332869529724,35.35353088378906,0.0,0
0.0,0.0,0.0,0.0,-0.8791822158813476,-1.314155573272705,-5.264871895422546e+22,25267,16419,8.828386317523241e+24,-0.8803232312202454,-5.5952755246835295e-06,1064955789
-0.0016905147272401428,3.677964306296e-311,0.0,-0.00422973558306694,506982.6871134043,5.002725088460659e-22,-0.012783179059624672,27140,16909,0.0,0.0,0.0,0
0.0,0.0,0.0,-0.885155436706543,-1.3166395553588868,9.686331118011474,27457.13671875,15874,48983,9.520948636908773e-35,0.9618635773658752,1.826498728056909e+38,3211035877
3.680086302087e-311,3006477839.125,-0.006771854161894453,502592.1871250868,9.85026700644273e-20,15791593355.27078,0.0,0,0,0.0,0.0,0.0,0
0.0,0.0,-0.8767780113220215,-1.3148850479125975,9.690183206176757,-0.0014228071184024047,-6.091118496018596e+20,53833,16252,-105977675776.0,-0.918912410736084,26.299999237060547,1735
0.0,-0.003021240234375,521408.1871145725,2.8565043685787115e-24,15791593360.089762,0.0,0.0,0,0,0.0,0.0,0.0,0
0.0,-0.8804057205200195,-1.3166485649108886,9.700492189788818,-0.0021195100284873963,0.006332730712579346,-9.260336875915527,14015,48986,26.299999237060547,2.4326541340678824e-42,0.0,0
-0.00132827740162611,503846.68712275027,1.0774817004156907e-21,15791593348.180378,0.0,0.0,0.0,0,0,0.0,0.0,0.0,0
-0.8805449012756348,-1.3163486701965332,9.693868337249755,-0.0008117914158018494,0.006778637086632385,-0.0020588432192723085,26.299999237060547,1737,0,0.0,0.0,0.0,3211273011
509491.4371134043,2.2540176653423864e-25,15589472135.452871,0.0,0.0,0.0,0.0,0,0,0.0,0.0,-0.02579999901354313,3219925543
-1.317183642578125,9.696831956481933,-0.0010714496203001404,0.00786535327777649,-0.0018801784008694459,3.6885743111543e-311,-29.700000762939453,52429,16872,-69.30000305175781,-0.9020019769668579,-1.2226073741912842,1092524390
-1.7026092816657187e-31,15589472139.816196,0.0,0.0,0.0,0.0,0.0,0,0,4.7031788186213674e-12,-1.8441352844238281,154560.09375,3220508387
9.690115615844727,-0.0013333448800987243,0.006315300323364563,-0.0037759429519114685,3.6906963069453e-311,0.0,0.0,47514,48989,-1.26806640625,9.835888862609863,-0.034354791045188904,1003581578
15791593348.180378,0.0,0.0,0.0,0.0,0.0,-2.1035309556730683e+22,2955,49132,3859725680640.0,-1.9141753911972046,-3.0135405421491536e+38,1076061906
-0.0015980830643414308,0.007136612539998016,-0.0020573718227801514,3.6928183027363e-311,0.0,-0.00527649000287056,-1.232177734375,32051,16669,-0.03595269098877907,0.0013315811520442367,-0.014647392556071281,1108175364
0.0,0.0,0.0,0.0,0.0,-0.8818528938293457,2.0155210893374373e+24,5216,49141,-2.3003667026788577e-10,2.5532052516937256,2.6926188218647327e-28,3210273224
0.006569698784746094,-0.0034148848896052553,3.694940298527e-311,0.0,-0.0036193840205669403,516390.6871297598,-0.033289529383182526,28810,15185,-0.01491370890289545,35.35353088378906,0.0,0
0.0,0.0,0.0,0.0,-0.8808313377380371,-1.3153284599304198,-1.633185338789142e-24,25972,16419,75714936.0,-0.7924984097480774,-1.1300988693567494e+30,1065359149
-0.0007952997908648681,3.697062268415e-311,2845416975.575,-0.0021987925467925606,520153.6871157408,1.0774817005098095e-21,-0.014381076209247112,27140,16909,0.0,0.0,0.0,0
0.0,0.0,0.0,-0.8784150581359863,-1.3133482276916504,9.69610958480835,-2.738433082058711e+37,42708,48987,-9302517984788480.0,1.00078547000885,1.5569982304407987e+28,3209881723
3.699184264206e-311,0.0,-0.0032455436885356903,507609.6871285915,5.770285222688267e-23,15993706374.362041,0.0,0,0,0.0,0.0,0.0,0
0.0,0.0,-0.8755454971313477,-1.309543991088867,9.702632500457764,-0.0015976503006672668,-9.190097569310318e+24,32969,16252,-1.067879847591914e-14,-0.870040774345398,26.299999237060547,1744
0.0,-0.00257263146340847,516390.68711223605,2.3088383814891588e-21,15791593351.998287,0.0,0.0,0,0,0.0,0.0,0.0,0
0.0,-0.8781946044921874,-1.3171868202209471,9.703870584869385,-0.001860118140096283,0.006888532428259277,-187.08486938476562,29688,16191,26.299999237060547,2.4452658202468058e-42,-29.700000762939453,1106011750
-0.0037689223138869465,503219.43711924553,1.1158220189145103e-26,15993706373.27121,0.0,0.0,0.0,0,0,0.0,0.0,0.0,0
-0.8720545761108398,-1.3183184349060058,9.699539794158936,-0.0014188123767947388,0.00551790329315567,-0.002595636622802429,26.299999237060547,1746,0,0.0,0.0,0.0,3211232870
484403.43712158204,2.6458454569919708e-23,15791593355.27078,0.0,0.0,0.0,0.0,0,0,0.0,0.0,-8.775260941774672e-23,3219920632
-1.3170020683288575,9.703009032440185,-0.000980862196443634,0.005230308529014435,-0.0048600159556918335,3.7076722473697e-311,0.0,0,0,0.0,-0.870898425579071,-1.263281226158142,1092509338
8.804756503704977e-28,15791593352.543703,0.0,0.0,0.0,0.0,0.0,0,0,-3.943512234290533e-16,-1.8436787128448486,8.345523165760593e-13,3220509990
9.706199871826172,-0.001922183108874054,0.005737494239329071,-0.0021399830792266845,3.709794269064e-311,0.0,0.0,19661,48998,-1.22021484375,9.893310546875,-0.03621900454163551,990617692
15589472132.725794,0.0,0.0,0.0,0.0,0.0,3.0136952232622367e-34,61582,49131,-2.314729889026812e+29,-1.9143677949905396,3.8778227802794925e-25,1076061040
-0.0007272893149943543,0.007595741508772431,-0.0008848019765846253,3.711916264855e-311,3167540751.1625,-0.0019744890927000823,-1.236962914466858,11366,16671,-0.03542005643248558,0.0055926404893398285,-0.012250546365976334,1108150691
0.0,0.0,0.0,0.0,0.0,-0.8748889587402343,7.885983267432694e+17,5026,49141,-4.131767151320726e-26,2.552778482437134,1.1146684963936337e-10,3209984381
0.007571733111710358,-0.0036900892968600462,3.714038260646e-311,0.0,-0.00309600867331028,503219.437107563,-0.03488742560148239,34931,15150,-0.009853700175881386,35.44764709472656,0.0,0
0.0,0.0,0.0,0.0,-0.8730578140258789,-1.3178464241027832,-2.806643670727124e-16,25753,16419,0.006167513784021139,-0.8803613781929016,124.28562927246094,1065053107
-0.001239015714936371,3.716160256437e-311,0.0,-0.0016647335141897202,493184.18711223605,5.77028522310844e-23,-0.013848443515598774,51812,16909,0.0,0.0,0.0,0
0.0,0.0,0.0,-0.8726348884582519,-1.3244814918518066,9.694363563537598,4.9989955863812506e+20,2992,48989,-5007921381376.0,0.9892558455467224,4.682165040185344e+16,3210267619
3.718282252228e-311,0.0,-0.0022735595703125,515763.4371589661,5.002725088864025e-22,15791593353.089119,0.0,0,0,0.0,0.0,0.0,0
0.0,0.0,-0.8730906372070312,-1.330321849822998,9.700361121368408,-0.0025573736561036683,5.270243428770103e+24,52549,16251,-121127.84375,-0.7879859209060669,26.399999618530273,1753
2845416975.2,-0.002796938195595544,515136.18713326455,4.925423493980118e-21,15791593356.907028,0.0,0.0,0,0,0.0,0.0,0.0,0
0.0,-0.8765802497863769,-1.3323929252624511,9.695509421539306,-0.001669522360091858,0.007160441173687744,4.898793903862497e-08,36048,48996,26.5,2.457877506425729e-42,0.0,0
-0.00722045823931694,510118.68711924553,5.002725088393431e-22,15791593356.907028,0.0,0.0,0.0,0,0,0.0,0.0,0.0,0
-0.879340200805664,-1.3386985649108887,9.697881774902344,-0.0012225240899993897,0.007003754092029724,-0.0020558338472612,26.600000381469727,1755,0,0.0,0.0,0.0,3211553997
473740.93713560107,2.856504368368625e-24,15791593353.634535,0.0,0.0,0.0,0.0,0,0,0.0,0.0,2.391636333420877e-10,3219926825
-1.342145970916748,9.69236759262085,-0.0012230500643110656,0.007437010450991821,-0.003868441193836975,3.7267702871985e-311,0.0,0,0,0.0,-0.930712878704071,-1.2895996570587158,1092554496
1.539466919274513e-21,15791593353.089119,0.0,0.0,0.0,0.0,0.0,0,0,3.2835203648559514e+17,-1.8451484441757202,2.204932691623993e-24,3220536197
9.69798431930542,-0.0038569696275202944,0.007426963675848541,-0.001506243954781189,3.7288922829894e-311,2201171471.275,-68.25,26214,48993,-1.256103515625,9.950732231140137,-0.03781690448522568,991761511
15791593351.452871,0.0,0.0,0.0,0.0,0.0,1.4616014943717506e-30,24357,49132,-0.00011406249541323632,-1.9182757139205933,-3.3949079653535305e-22,1076061678
-0.002495575003433075,0.008811581064481658,-0.001246978566540985,3.7310142269736e-311,0.0,-0.004080198705196381,-1.284814476966858,41779,16670,-0.03408847749233246,-0.0021305298432707787,-0.015446340665221214,1108200036
0.0,0.0,0.0,0.0,0.0,-0.8852798881530761,-1.0286909863058657e-19,31275,49141,4.218741209044343e+29,2.552983522415161,8.000638365820885e-31,3211825357
0.008297883925346528,-0.002324606720527649,3.7331362227646e-311,0.0,-0.004080198705196381,485030.6871379375,-0.03728426992893219,41052,14987,-0.015712657943367958,35.35353088378906,0.0,0
0.0,0.0,0.0,0.0,-0.8881261589050292,-1.3430394866943358,9.671434431877684e-32,25318,16419,-1970900864.0,-0.83006352186203,-5.078018133084974e-26,1065392615
-0.0041447374971311955,3.7352582185556e-311,0.0,-0.0021240226924419403,506355.4371414423,1.5763681626725491e-19,-0.016777921468019485,27140,16909,0.0,0.0,0.0,0
0.0,0.0,0.0,-0.886506159210205,-1.351012117767334,9.689186884307862,-2.0934233561584963e+35,55747,48994,2.810361915804028e-37,1.0137999057769775,5.3550109441857785e-05,3208004835
3.7373802143465e-311,2845416975.275,-0.0033203135428692574,483776.1871134043,6.013542653311023e-24,15993706375.998287,0.0,0,0,0.0,0.0,0.0,0
0.0,0.0,-0.8902046363830566,-1.351192308807373,9.6837873588562,-0.002118964080467682,-3.598059450382607e-08,35825,16249,5.5670440701760526e-08,-0.8868701457977295,26.399999618530273,1762
0.0,-0.00170211773365736,506355.43715195655,4.925423494195246e-21,15791593350.907455,0.0,0.0,0,0,0.0,0.0,0.0,0
0.0,-0.8905814300537109,-1.348793263244629,9.686179899597168,-0.002558152630717163,0.007226128041523132,2.7808676522830988e+25,5728,48992,26.399999618530273,2.4704891926046525e-42,0.0,0
-0.0024230964481830597,517644.9371437788,5.770285223360544e-23,15993706383.08869,0.0,0.0,0.0,0,0,0.0,0.0,0.0,0
-0.8917352508544921,-1.3523377555847167,9.689525247192382,-0.001620134038015747,0.006107034469648895,-0.001965419528874359,26.299999237060547,1764,0,0.0,0.0,0.0,3210951885
483148.93715312483,3.2328088196370597e-21,15791593350.362041,0.0,0.0,0.0,0.0,0,0,0.0,0.0,-7.929414395158925e-38,3219945327
-1.3479545524597167,9.688654946899414,-0.00022514363700805665,0.006721785255652618,-0.0036929588529148864,3.745868171607e-311,-28.649999618530273,13107,16875,-67.94999694824219,-0.966601550579071,-1.287207007408142,1092501811
1.0774817004694729e-21,15791593353.634535,0.0,0.0,0.0,0.0,0.0,0,0,1.5046680264599321e-12,-1.8478162288665771,8873.57421875,3220543197
9.691889600372313,-0.0017056148505171203,0.005563529900217895,-0.0025970947034892273,3.747990167398e-311,0.0,0.0,49152,49000,-1.2776367664337158,9.890917778015137,-0.035686373710632324,1002437758
16195819403.27078,0.0,0.0,0.0,0.0,0.0,-9.020996003528126e-06,39218,49132,-1.1645558616091076e-32,-1.9184057712554932,-7.189809858587637e-11,1076060600
-0.0009873869410694884,0.0071387230951474,-0.001878394082951355,3.7501121890923e-311,0.0,-0.00257263146340847,-1.2919921875,41779,16670,-0.035686373710632324,0.006125273182988167,-0.012783179059624672,1108200036
0.0,0.0,0.0,0.0,0.0,-0.8915499008178711,-1.0388792317376205e+27,35233,49141,-1931017216.0,2.5528838634490967,2.764290129081139e+16,3209797538
0.007328626453273163,-0.0006109890709898376,3.7522341848833e-311,0.0,-0.006921388208866119,507609.6871344328,-0.035686373710632324,58517,15202,-0.010386332869529724,35.44764709472656,0.0,0
0.0,0.0,0.0,0.0,-0.8957984840393066,-1.3444127143859863,-5.757113651574067e-21,25241,16419,-1.9018967308199526e+18,-0.4890826344490051,-8.27687483628672e-31,1064909813
-0.0009727595288827515,3.7543561806743e-311,2845416975.425,-0.001889038607376392,486912.1871344328,-4.358679761505019e-29,-0.016777921468019485,51812,16909,0.0,0.0,0.0,0
0.0,0.0,0.0,-0.8903892761230469,-1.344645841217041,9.684956581878662,6.028583925399289e-07,4376,48994,-5.142798339963228e-11,0.9718233346939087,3.6908526680440485e-23,3211327276
3.756478176465e-311,0.0,-0.004678346216678619,495065.68715312483,6.773364369791881e-21,15791593354.17995,0.0,0,0,0.0,0.0,0.0,0
0.0,0.0,-0.8944865287780761,-1.3427522651672363,9.69540769958496,-0.001771534744946289,-11848.7412109375,6815,16252,-8.658036722439155e-29,-0.9014674425125122,26.399999618530273,1771
0.0,-0.00369415245950222,490675.43715195655,1.477193017072735e-20,15791593354.17995,0.0,0.0,0,0,0.0,0.0,0.0,0
0.0,-0.8919038528442382,-1.3392552505493163,9.686835279083251,-0.001859758613351593,0.00671219787579422,5.3885589973391365e-14,40364,16203,26.399999618530273,2.483100878783576e-42,0.0,0
-0.00272216834127903,506982.68713326455,1.051874813442311e-24,15993706385.180592,0.0,0.0,0.0,0,0,0.0,0.0,0.0,0
-0.8867444450378418,-1.3389955810546874,9.686051223754882,-0.0023837222384184265,0.007227819148803711,-0.0017832992589808655,26.399999618530273,1773,0,-29.399999618530273,28.799999237060547,-68.8499984741211,3211433574
520153.68714027404,5.770285222772302e-23,15993706376.543703,0.0,0.0,0.0,0.0,0,0,0.0,0.0,1.7177370243130102e-16,3219941527
-1.3411693130493163,9.68975478515625,-0.0024669659956195068,0.0058779027489358525,-0.0023215973485165406,3.764966159629e-311,0.0,0,0,0.0,-0.921142578125,-1.2943847179412842,1092481741
6.013542653048415e-24,15791593358.543276,0.0,0.0,0.0,0.0,0.0,0,0,1.0495583657654263e+36,-1.848085880279541,-5177.34375,3220528868
9.697138842010498,-0.0014226406708354187,0.006779562535104828,-0.0018756177375340271,3.76708815542e-311,0.0,0.0,59802,48998,-1.275244116783142,9.938769340515137,-0.035686373710632324,1001865848
15993706383.634106,0.0,0.0,0.0,0.0,0.0,-23.705598831176758,35782,49132,28206.693359375,-1.9170475006103516,-1.9268488778438623e+36,1076060729
-0.0012649682195808411,0.007214596554082337,-0.0003396395893864441,3.769210151211e-311,0.0,-0.00346984900534153,-1.287207007408142,11366,16671,-0.037017956376075745,0.0026631623040884733,-0.010652649216353893,1108200036
0.0,0.0,0.0,0.0,0.0,-0.8862940422058105,-3.1226646999303455e+19,21096,49141,4.184245838700917e-09,2.552835464477539,-5.421206311370841e-29,1059609440
0.00634309040914856,-0.0007975767935812378,3.7713320951957e-311,2684356111.3125,-0.0016273509337608517,506355.43715312483,-0.035153742879629135,46724,15304,-0.015978973358869553,35.35353088378906,0.0,0
0.0,0.0,0.0,0.0,-0.8891129852294921,-1.3345615356445313,-5.906596096020998e-33,26109,16419,-1740894931779584.0,-0.8819946050643921,-4.658595164651504e-38,1065126279
-0.0009726862919532776,3.7734540909867e-311,0.0,-0.00264739990234375,490048.18716130254,6.893566777031324e-20,-0.015978973358869553,27140,16909,0.0,0.0,0.0,0
0.0,0.0,0.0,-0.8918698707580566,-1.3310619789123534,9.702559713745117,6.837948063705043e-29,41309,49004,5.19581544722314e-06,0.9817441701889038,1.0871341561719641e-20,3209284677
3.7755761126806e-311,0.0,-0.0024978630244731903,478758.68713326455,1.0518748133635287e-24,15791593358.543276,0.0,0,0,0.0,0.0,0.0,0
0.0,0.0,-0.8874804992675781,-1.331022314453125,9.704708099365234,-0.0014499647034318542,-1.3861849624126833e-32,60134,16254,7.573493509071328e+30,-0.8297848701477051,26.399999618530273,1780
0.0,-0.0024978630244731903,500710.6871507883,1.0466346912635065e-20,15791593356.907028,0.0,0.0,0,0,0.0,0.0,0.0,0
0.0,-0.8846869026184082,-1.3276871726989745,9.706474270629883,-0.002407151397947388,0.006648934484534149,-538315522048.0,18733,48983,26.399999618530273,2.4957125649624992e-42,-29.399999618530273,1105933107
-0.002198792546809614,503219.4371472836,5.002725088595114e-22,15791593348.180378,0.0,0.0,0.0,0,0,0.0,0.0,0.0,0
-0.8855797080993653,-1.3276919204711914,9.700504190063477,-0.001185632651252594,0.006735260850675812,-0.0019691346385694885,26.399999618530273,1782,0,0.0,0.0,0.0,3211473715
511372.9371274233,1.0466346914140965e-20,15791593359.634106,0.0,0.0,0.0,0.0,0,0,0.0,0.0,-1.4172690310693953e-19,3219942140
-1.3307676918029785,9.7023637840271,-0.0010987403633831788,0.006827299697316437,-0.0016980914204893494,3.784064121748e-311,0.0,0,0,0.0,-0.911572277545929,-1.2226073741912842,1092529408
3.2328088195832778e-21,15993706373.816626,0.0,0.0,0.0,0.0,0.0,0,0,299.00799560546875,-1.8472219705581665,-5.848603149762365e+35,3220520949
9.694656542205811,-0.001708943801856842,0.006561442985423584,-0.0012422647714439392,3.7861861175387e-311,0.0,0.0,63898,49001,-1.2178223133087158,9.876562118530273,-0.035686373710632324,1001293939
15993706385.180592,0.0,0.0,0.0,0.0,0.0,-1.201669887456857e-14,16773,49132,3.811648098561283e-24,-1.915845513343811,750299715207168.0,1076061089
3.604588510650635e-05,0.006564652094515076,-0.0010672351679040528,3.7883081133297e-311,2523295247.425,-0.0024978644399311634,-1.2656738758087158,18893,16671,-0.03462110832333565,0.0034621108788996935,-0.009587383829057217,1108200036
0.0,0.0,0.0,0.0,0.0,-0.8882797698974609,-0.0,13114,49141,-3.098107645192548e-21,2.5529260635375977,6.465795487947795e-26,3208869771
0.006513193164705658,-0.002877758590941162,3.7904301091207e-311,0.0,-0.00751953199505806,518899.4371379375,-0.033822160214185715,46724,15304,-0.012516862712800503,35.35353088378906,0.0,0
0.0,0.0,0.0,0.0,-0.8916958854675293,-1.3264889022827149,3253867264.0,25396,16419,-3.4214493195929063e+33,-0.6891868114471436,5.791632690173601e-21,1064982941
-0.0007058242367558289,3.7925520790083e-311,0.0,-0.00309600867331028,512627.4371274233,4.925423494141464e-21,-0.015180024318397045,51812,16909,0.0,0.0,0.0,0
0.0,0.0,0.0,-0.8855321182250976,-1.3229073997497558,9.69183318786621,75871657984.0,43235,48982,-8.077023107161392e+25,0.9677945971488953,-4.0461309254169464e-05,3209977203
3.794674074799e-311,0.0,-0.00422973558306694,515136.18715195655,8.804756504859017e-28,15791593349.816626,0.0,0,0,0.0,0.0,0.0,0
0.0,0.0,-0.8877758705139159,-1.3297687904357909,9.695686098480225,-0.0013683920798033143,1.4607419222092354e-33,38902,16248,3728368.0,-0.8411048054695129,26.399999618530273,1789
3167540751.5,-0.00332031354293747,505100.93713560107,2.645845456802893e-23,15993706379.816196,0.0,0.0,0,0,0.0,0.0,0.0,0
0.0,-0.8936841926574707,-1.326939305114746,9.694081538391114,-0.0010961637550462341,0.006182821375848999,-3.9830694298359504e-11,13920,49006,26.399999618530273,2.5083242511414226e-42,0.0,0
-0.00346984900534153,495065.6871157408,6.77336436952297e-21,15993706377.089119,0.0,0.0,0.0,0,0,0.0,0.0,0.0,0
-0.8914529640197754,-1.3333409843444823,9.701079119110107,-0.0024030234982861326,0.005381209893244018,-0.002865687813383331,26.399999618530273,1791,0,0.0,0.0,0.0,3211032166
502592.1871379375,5.002725087922837e-22,15791593350.362041,0.0,0.0,0.0,0.0,0,0,0.0,0.0,1.3828277412031298e-09,3219944208
-1.3327581672668456,9.697897251892089,-0.0013617608087345887,0.007359852016839752,-0.002332929098876953,3.8031620838665e-311,0.0,0,0,0.0,-0.9163573980331421,-1.303955078125,1092509338
1.0466346912419936e-20,15993706380.361612,0.0,0.0,0.0,0.0,0.0,0,0,-2.4341638273041895e-18,-1.8481398820877075,2.567071538882174e+33,3220527039
9.694838639831543,-0.0014469686472261048,0.006472773037538757,-0.00115230984834198,3.8052840796574e-311,2523295247.425,-68.25,22118,48990,-1.232177734375,9.991406440734863,-0.034354791045188904,986804362
15993706376.543703,0.0,0.0,0.0,0.0,0.0,-2.307114458270816e+37,38579,49132,2959005712384.0,-1.9173649549484253,5.0635278830734115e+33,1076062290
-0.0008412126877423095,0.00818193655018402,-0.0006170943677468872,3.8074060754484e-311,0.0,-0.00219879113137722,-1.256103515625,34253,16670,-0.03355584293603897,0.0037284272257238626,-0.013315810821950436,1108175364
0.0,0.0,0.0,0.0,0.0,-0.893512525177002,-1.3124942910280879e-08,24970,49141,-1.3607850457840084e-33,2.5528628826141357,553573.375,3210565348
0.0063907476765280155,-0.001240926533005371,3.8095280971427e-311,0.0,-0.0043792724609375,513254.6871344328,-0.03222426399588585,58517,15330,-0.011451597325503826,35.35353088378906,0.0,0
0.0,0.0,0.0,0.0,-0.8924812118530273,-1.3337169929504393,-2.2466758031503456e-31,24785,16419,3.2204685528551504e-28,-0.8242595791816711,-3.1789743922033274e-28,1065004800
-0.0014228270921104432,3.8116500929337e-311,3328601615.3125,-0.004977419077994228,481894.68712275027,6.77336437000701e-21,-0.014381076209247112,27140,16909,0.0,0.0,0.0,0
0.0,0.0,0.0,-0.8938532432556152,-1.336999722290039,9.688309817504882,-67147879415808.0,42622,48997,1.9637585878372192,0.9789671301841736,-1.1767878382508877e+21,3211424532
3.8137720887247e-311,0.0,-0.001889037899672985,483148.9371437788,4.925423493926336e-21,15993706373.27121,0.0,0,0,0.0,0.0,0.0,0
0.0,0.0,-0.9013643684387207,-1.330070442199707,9.691490675354004,-0.0021154620236582948,-4.6521154217771254e-06,49314,16244,-2.3776115567754704e-18,-0.9041252732276917,26.5,1798
0.0,-0.00219879113137722,513881.687116909,1.250227897992523e-22,15993706374.907455,0.0,0.0,0,0,0.0,0.0,0.0,0
0.0,-0.8984023567199707,-1.3356800659179686,9.689756841278076,-0.00029077058371932985,0.006043797709999543,-14.670737266540527,50162,49001,26.399999618530273,2.520935937320346e-42,0.0,0
-0.00452880933880806,506982.68714027404,3.2328088193412583e-21,15993706381.452444,0.0,0.0,0.0,0,0,0.0,0.0,0.0,0
-0.8869808990478515,-1.334143357849121,9.692172373199462,-0.002384361397075653,0.007578970251922913,-0.002690072314407654,26.399999618530273,1800,0,-29.399999618530273,28.950000762939453,-67.5,3211915264
500710.68713092804,-2.2540176648828223e-25,15993706375.452871,0.0,0.0,0.0,0.0,0,0,0.0,0.0,5.843993500656069e-37,3219962145
-1.3342894546508788,9.683967886352539,-0.0021154287341448976,0.004981389521538086,-0.002319666556739502,3.822260045985e-311,0.0,0,0,0.0,-0.945068359375,-1.280029296875,1092577075
1.077481700294681e-21,15993706383.634106,0.0,0.0,0.0,0.0,0.0,0,0,8.345523165760593e-13,-1.8478108644485474,-4.464112041648456e+17,3220526682
9.700451889801025,-0.0010044111982208251,0.006370274625788727,-0.0037791121135868837,3.824382041776e-311,0.0,0.0,17203,49006,-1.244140625,9.883740425109863,-0.035686373710632324,998434390
15791593360.089762,0.0,0.0,0.0,0.0,0.0,-2.4926162247902822e+17,29054,49132,1.7177370243130102e-16,-1.9164382219314575,-1003.52001953125,1076060362
-0.0009985455859602356,0.0058588411735646054,-0.0016941099946870422,3.8265040116637e-311,0.0,-0.003930665552616119,-1.2465331554412842,47104,16669,-0.03462110832333565,0.008255803026258945,-0.014114759862422943,1108200036
0.0,0.0,0.0,0.0,0.0,-0.8872514846801758,13427785728.0,13678,49141,-9.681681245792137e+27,2.5528407096862793,-1.2893359729453334e-21,3206977791
0.005589522352278442,0.0002998985682928467,3.8286260074547e-311,3650723343.275,-0.007519534825888741,499456.1871507883,-0.034354791045188904,41052,47627,-0.014114759862422943,35.35353088378906,0.0,0
0.0,0.0,0.0,0.0,-0.889453067779541,-1.3289296310424805,-6.900557845764034e+19,25436,16419,0.003952110186219215,-0.8488471508026123,-2.4767712835734077e+29,1064932017
-0.0016875453026451112,3.830748029149e-311,0.0,-0.003021240234375,508864.1871297598,2.3088383819194156e-21,-0.011984230019152164,51812,16909,0.0,0.0,0.0,0
0.0,0.0,0.0,-0.8890244224548339,-1.324463734436035,9.689333654022217,1.0308709325782861e-36,29589,48993,-7.187175736814565e-28,0.9742559790611267,-1.8167252869016075e-27,3209652686
3.8328700508433e-311,0.0,-0.0037689208984375,523289.6871180773,1.2628159450446747e-23,15791593360.089762,0.0,0,0,0.0,0.0,0.0,0
0.0,0.0,-0.8784930038452148,-1.324069295501709,9.68838821182251,-0.0006463092447042847,-2.110346267311311e-13,3122,16250,-1.855995899931525e+17,-0.9382426738739014,26.5,1807
0.0,-0.003930665552616119,493811.4371157408,1.567041477e-314,15791593351.452871,0.0,0.0,0,0,0.0,0.0,0.0,0
0.0,-0.880272184753418,-1.3250485702514647,9.690916120147705,-0.0001356148196775818,0.005274403818460388,-2.3229372111446462e-24,41000,48990,26.5,2.5335476234992693e-42,-29.100000381469727,1105854464
-0.006622317284057999,532326.8742384911,1.2628159451812308e-23,15791593359.634106,0.0,0.0,0.0,0,0,0.0,0.0,0.0,0
-0.8836359252929687,-1.3214606376647948,9.686600283050536,-0.0024008130745965576,0.006291371821134643,-0.0023251127211312865,26.200000762939453,1809,0,0.0,0.0,0.0,3211513856
513254.6871391058,7.312651182015265e-22,15993706376.543703,0.0,0.0,0.0,0.0,0,0,0.0,0.0,299.00799560546875,3219921533
-1.316990030670166,9.691814720153808,-0.0010959440442578124,0.006093898427662354,-0.003597171607065735,3.8413579562976e-311,0.0,0,0,0.0,-0.935498058795929,-1.184326171875,1092539443
2.2540176653423864e-25,15791593351.452871,0.0,0.0,0.0,0.0,0.0,0,0,8873.57421875,-1.8451220989227295,5.032153338637766e+21,3220506943
9.69174354095459,-0.0023988290195980835,0.005574648597692566,-0.002232048557478027,3.8434799779914e-311,0.0,0.0,59802,48998,-1.2465331554412842,9.924413681030273,-0.03648532181978226,992905331
15993706379.816196,0.0,0.0,0.0,0.0,0.0,-6308233.0,10557,49132,4.723055389964758e-22,-1.914527177810669,-4.721553277467631e-29,1076060662
-0.00270303525092453,0.00610015685618103,-0.00268139040931366,3.845601999686e-311,3328601615.275,-0.0038436907528392795,-1.208251953125,49613,16669,-0.03169162943959236,0.0013315811520442367,-0.011984230019152164,1108200036
0.0,0.0,0.0,0.0,0.0,-0.8783341590881347,1.4051329544351177e-11,10882,49141,-1.3965511123528428e+24,2.5532119274139404,21.687217712402344,3210235392
0.0068173061853945924,-0.0028692631071221926,3.8477239954767e-311,0.0,-0.00781860202550888,513254.68712275027,-0.03462110832333565,41052,14987,-0.015978973358869553,35.44764709472656,0.0,0
0.0,0.0,0.0,0.0,-0.8735511337280273,-1.3181607116699219,1.3183190766044846e-27,25141,16419,-2.93711466194996e-18,-0.8170796632766724,0.010050161741673946,1065159425
-0.0024189625173007203,3.8498459912677e-311,0.0,-0.005126953125,513881.6871461153,2.1677092428462618e-19,-0.011451597325503826,51812,16909,0.0,0.0,0.0,0
0.0,0.0,0.0,-0.878493041229248,-1.3205190086364746,9.70749792022705,-2.559400288940714e-25,44479,48988,3.5745743939452505e+34,1.0114704370498657,-1.0370990871758766e+18,3210659305
3.8519679870587e-311,0.0,-0.00527649000287056,498828.93713560107,4.932874785453858e-26,15791593362.271423,0.0,0,0,0.0,0.0,0.0,0
0.0,0.0,-0.8812615531921386,-1.3278016426086425,9.70996309814453,-0.0016835905084535217,3.8337208824586145e-16,1971,16257,-6.043847110296596e-32,-0.8529096245765686,26.399999618530273,1816
2845416975.5,-0.0022735609857448937,508236.9371145725,1.250227897958909e-22,15791593352.543703,0.0,0.0,0,0,0.0,0.0,0.0,0
0.0,-0.8811305221557617,-1.3193609260559083,9.69334645614624,-0.0022975090566223146,0.007671774757371673,4.071060903140668e-31,4910,48995,26.399999618530273,2.5461593096781926e-42,0.0,0
-0.0037689208984375,508236.93711924553,2.2540176652439084e-25,15791593351.452871,0.0,0.0,0.0,0,0,0.0,0.0,0.0,0
-0.8762078674316406,-1.314095571899414,9.698387356567382,-0.0011628959136022949,0.007581673360410767,-0.0025132184455336,26.399999618530273,1818,0,0.0,0.0,0.0,3211513856
518272.18711924553,1.2502278980261368e-22,15791593347.634962,0.0,0.0,0.0,0.0,0,0,0.0,0.0,-107374184.0,3219922839
-1.3240898941040038,9.701387649536132,-0.0016615395347792054,0.0061831409551776125,-0.0025046696984931944,3.8604559702225e-311,0.0,0,0,0.0,-0.849365234375,-1.227392554283142,1092589619
6.773364369899445e-21,15791593351.998287,0.0,0.0,0.0,0.0,0.0,0,0,2.2144317313177453e-07,-1.845300316810608,-7.929414395158925e-38,3220510175
9.686424727630614,-0.0016585368206707763,0.006913646037166138,-0.0020539962661216735,3.8625779660135e-311,3650723343.425,-68.25,819,48994,-1.2226073741912842,9.950732231140137,-0.03621900454163551,989092001
15791593355.27078,0.0,0.0,0.0,0.0,0.0,-12229.017578125,52274,49131,2674288.25,-1.914549469947815,2.443003644362059e-33,1076061259
-0.0029840386914131165,0.0072449366165925596,-0.001870870652923584,3.8646999618045e-311,0.0,-0.00422973558306694,-1.232177734375,61542,16671,-0.03355584293603897,0.006125273182988167,-0.011717913672327995,1108200036
0.0,0.0,0.0,0.0,0.0,-0.8745790077209472,-54.7327995300293,3401,49141,-7.14707970914361e-32,2.5528066158294678,0.9153913855552673,3210258826
0.005247998576433716,-0.0026849457293444826,3.866821931692e-311,0.0,-0.00384368933737278,498828.9371157408,-0.033822160214185715,28810,15313,-0.013315810821950436,35.35353088378906,0.0,0
0.0,0.0,0.0,0.0,-0.8791741409301758,-1.3159939331054686,6.156921017463901e-07,24573,16419,5.314921256333342e-15,-0.9082127213478088,0.0401790626347065,1064904768
-0.00286402999561615,3.868943927483e-311,0.0,-0.003021240234375,508864.187126255,4.6789361195532954e-20,-0.016245288774371147,51812,16909,0.0,0.0,0.0,0
0.0,0.0,0.0,-0.869241315460205,-1.3218238235473632,9.697140599060058,-4.937166315287731e-36,15257,48974,-4.379840277124458e-07,0.9755515456199646,-6.796395383671859e-26,3210893786
3.871065897371e-311,2684356111.5375,-0.003320313542928943,513881.6871414423,5.770285222856336e-23,15993706380.361612,0.0,0,0,0.0,0.0,0.0,0
0.0,0.0,-0.8687027610778808,-1.3185207946777344,9.693005588531493,-0.0018188790908998107,-7.353194285087378e+36,44539,16246,-3.4363224061700527e-35,-0.7339432835578918,26.100000381469727,1825
0.0,-0.0018142703920602798,496947.43713326455,1.262815944967555e-23,15791593353.089119,0.0,0.0,0,0,0.0,0.0,0.0,0
0.0,-0.8722319259643554,-1.3272648078918456,9.704193171691895,-0.0007705257349946594,0.005257599272097473,4031097121800192.0,17733,48989,26.100000381469727,2.558770995857116e-42,0.0,0
-0.0018142703920602798,487539.43712041376,6.7733643694691886e-21,15993706373.816626,0.0,0.0,0.0,0,0,0.0,0.0,0.0,0
-0.8734679542541504,-1.3239834243774413,9.699844623565674,-0.002418596332653351,0.007165241521519623,-0.0018767029756707764,26.200000762939453,1827,0,0.0,0.0,0.0,3210630758
481894.68712275027,9.850267007762906e-20,15993706378.725365,0.0,0.0,0.0,0.0,0,0,0.0,0.0,-1.0388792317376205e+27,3219907978
-1.3193065696716308,9.694749254608155,-0.0023784824690097047,0.005514700841966858,-0.0028639501007839967,3.879553906438e-311,-30.0,52429,16872,-68.8499984741211,-0.9020019769668579,-1.179540991783142,1092551987
4.932874785207663e-26,15791593348.180378,0.0,0.0,0.0,0.0,0.0,0,0,-2.168510664389123e+21,-1.8431228399276733,-3.611748536367744e-22,3220517908
9.702856692504882,-0.0012493421219921875,0.007396157560150757,-0.0032366994401953125,3.881675902229e-311,0.0,0.0,61440,49009,-1.275244116783142,9.917236328125,-0.03222426399588585,984516723
15993706372.180378,0.0,0.0,0.0,0.0,0.0,1381261440.0,10446,49132,0.0006476562120951712,-1.9157012701034546,-5.200604674138472e+33,1076061983
-0.0013326591161227418,0.007769352979041595,-0.002603366447813263,3.883797923923e-311,0.0,-0.0022735595703125,-1.232177734375,11366,16671,-0.03542005643248558,0.0026631623040884733,-0.01491370890289545,1108200036
0.0,0.0,0.0,0.0,0.0,-0.8790210906982422,-209642554654720.0,15790,49141,6.806958630691946e-37,2.5531444549560547,2.4427943211974045e-25,3210142943
0.007263538796678925,-0.003142789722901764,3.885919919714e-311,0.0,-0.0021240226924419403,522035.4371461153,-0.03275689482688904,58966,15234,-0.013848443515598774,35.35353088378906,0.0,0
0.0,0.0,0.0,0.0,-0.8772278160095215,-1.333502333831787,-7.987199783325195,25106,16419,4.8744729143129045e-26,-0.876745879650116,3.379671325265101e+16,1065157954
-0.0029589317404089357,3.888041915505e-311,3650723343.35,-0.002273560985770473,508236.9371297598,1.576368162793021e-19,-0.011984230019152164,27140,16909,0.0,0.0,0.0,0
0.0,0.0,0.0,-0.8789645286560058,-1.3290236892700196,9.701089025878906,-1.9100185186391878e-20,59426,49003,1.7235840922923565e+19,1.0027985572814941,-1.024737053959495e+35,3210841245
3.890163911296e-311,0.0,-0.0014778133481740952,522035.43711924553,4.925423493711207e-21,15791593351.452871,0.0,0,0,0.0,0.0,0.0,0
0.0,0.0,-0.8858208351135254,-1.3437969619750976,9.698023871612548,-0.003256693121941681,-4.891531180106767e-09,64522,16253,-4.1446982307696285e-23,-0.8349803686141968,26.299999237060547,1834
0.0,-0.0028717033565044403,504473.68713209627,2.308838381623614e-21,15993706377.089119,0.0,0.0,0,0,0.0,0.0,0.0,0
0.0,-0.884783502960205,-1.3463773948669433,9.69467777633667,-0.0022969431348945617,0.007322134998160705,1.6253805468403641e+27,21364,48980,26.299999237060547,2.5713826820360393e-42,0.0,0
-0.00264739990234375,512627.4371379375,9.850267008537368e-20,15791593361.180592,0.0,0.0,0.0,0,0,0.0,0.0,0.0,0
-0.8841729843139648,-1.342960531616211,9.69291414718628,-0.002560675975832672,0.008207363080516816,-0.0026011094188049316,26.299999237060547,1836,0,-29.549999237060547,28.350000381469727,-67.94999694824219,3209908224
505100.93713209627,1.2628159451077006e-23,15993706378.17995,0.0,0.0,0.0,0.0,0,0,0.0,0.0,-9.054067378205003e+30,3219942018
-1.3431056938171386,9.694438331604003,-0.0002904510043907166,0.007415279056646119,-0.0010667957463272094,3.8986518685565e-311,0.0,0,0,0.0,-0.9737793207168579,-1.236962914466858,1092587110
7.312651182821997e-22,15791593360.362469,0.0,0.0,0.0,0.0,0.0,0,0,13427785728.0,-1.8479315042495728,5122844262400.0,3220538596
9.692534998321532,-0.0014286927043710327,0.008932009208147431,-0.0018831611412698365,3.9007738643475e-311,0.0,0.0,34406,48999,-1.275244116783142,9.840673446655273,-0.03462110832333565,1000722029
15791593354.725365,0.0,0.0,0.0,0.0,0.0,-643406.1875,34828,49132,3.0212402180040954e-07,-1.9184647798538208,-7.056258342908167e+24,1076059812
-0.0023828167636540222,0.00695572398210022,-0.0021445637162701417,3.9028958601385e-311,0.0,-0.00332031212747097,-1.263281226158142,51814,16670,-0.03462110832333565,0.003994743339717388,-0.011717913672327995,1108175364
0.0,0.0,0.0,0.0,0.0,-0.8896748672485352,-1.3828277412031298e-09,37579,49141,-5.351632317824768e-30,2.5526883602142334,6.469623175467626e-18,3210731831
0.0067714731833493046,-0.0027793148419229126,3.9050178559294e-311,2523295247.5,-0.0024230978636239795,507609.6871577978,-0.035153742879629135,58517,15202,-0.01491370890289545,35.44764709472656,0.0,0
0.0,0.0,0.0,0.0,-0.8952540229797363,-1.3440794357299803,-4.019737076532692e-08,25241,16419,9.52757644561169e-24,-0.8187125325202942,-2.0562235130826637e+26,1065053378
-0.0012426575877020265,3.9071398517204e-311,0.0,-0.00332031212747097,485030.68713326455,5.002725088864025e-22,-0.014647392556071281,27140,16909,0.0,0.0,0.0,0
0.0,0.0,0.0,-0.8951477775573731,-1.349539598083496,9.69423918685913,121361691312128.0,61866,48996,-0.000279491301625967,0.9820082187652588,-2719566044069888.0,3210744428
3.9092618475114e-311,0.0,-0.001589966006577015,508236.9371414423,5.002725088662342e-22,15791593357.452444,0.0,0,0,0.0,0.0,0.0,0
0.0,0.0,-0.8893308219909668,-1.3492694984436036,9.690358948516845,-0.002016745300630188,1.3351139022009805e-33,45398,16249,2.3457463641818922e-33,-0.8349301218986511,26.399999618530273,1843
0.0,-0.00452880933880806,484403.43715312483,1.250227897807647e-22,15993706378.17995,0.0,0.0,0,0,0.0,0.0,0.0,0
0.0,-0.8937850173950195,-1.3459549926757812,9.68853830871582,-0.0014588862930223084,0.006781280273996124,1.90608501112832e+16,44839,48987,26.5,2.5839943682149627e-42,-29.100000381469727,1105618534
-0.0030212416498073937,472486.6871683121,6.77336437027592e-21,15791593354.725365,0.0,0.0,0.0,0,0,0.0,0.0,0.0,0
-0.8990110061645508,-1.3502856338500977,9.702371634674073,-0.0012831442938957215,0.006418164919761963,-0.00223237479470932,26.5,1845,0,0.0,0.0,0.0,3211634278
512627.43714962003,1.0466346912957758e-20,15791593359.08869,0.0,0.0,0.0,0.0,0,0,0.0,0.0,-1.471416067162112e+16,3219943189
-1.346284944152832,9.690455661010741,-0.0004173572873635864,0.006869291089515686,-0.0009696636041368103,3.917749882482e-311,0.0,0,0,0.0,-0.906787097454071,-1.284814476966858,1092519373
7.312651182821997e-22,15791593347.089546,0.0,0.0,0.0,0.0,0.0,0,0,-1.3739009855290057e-18,-1.8471006155014038,1.00135799652179e-09,3220534048
9.687018236541748,0.0008710534075515747,0.00735390650974701,-0.0033321005276890562,3.9198718523696e-311,2684356111.2375,-67.5,11469,48992,-1.248925805091858,9.907666206359863,-0.03595269098877907,996336789
15993706379.816196,0.0,0.0,0.0,0.0,0.0,-1.5881866814385045e-23,41319,49132,nan,-1.9173027276992798,-4.878015389591197e+22,1076060092
-0.0013956095859568786,0.006636504180231629,-0.0030500384806744383,3.9219938481605e-311,0.0,-0.00572509691119194,-1.272851586341858,39578,16669,-0.03728426992893219,0.003195794764906168,-0.012783179059624672,1108175364
0.0,0.0,0.0,0.0,0.0,-0.8949386512756348,-5.7101248174262764e-09,28210,49141,1.6909325502301176e-12,2.5525214672088623,-165352.5,3211104681
0.006526269285568085,-0.0020506806305873107,3.9241158439515e-311,0.0,-0.006622314453125,480012.9371461153,-0.031957946717739105,17016,15287,-0.012783179059624672,35.44764709472656,0.0,0
0.0,0.0,0.0,0.0,-0.882444645690918,-1.3347201187133788,nan,24532,16419,11581524.0,-0.8256627321243286,-4.0208159991161925e+21,1064773112
-0.0028708809774732973,3.926237813839e-311,0.0,-0.0058746337890625,507609.68716480734,3.200583418688756e-20,-0.013315810821950436,51812,16909,0.0,0.0,0.0,0
0.0,0.0,0.0,-0.8944618553161621,-1.329324518585205,9.689077274322509,-1.0987802729339521e-29,17699,48982,-8.476075841201691e-09,0.9811201095581055,4.545880659821855e+17,3211574262
3.92835980963e-311,3167540751.1625,-0.0031707785276694268,486284.9371461153,1.2628159450761876e-23,15791593352.543703,0.0,0,0,0.0,0.0,0.0,0
0.0,0.0,-0.8909301483154296,-1.334142610168457,9.695100627136231,-0.002935362764923706,1.9423488082573375e-19,49516,16256,1.168528607209396e-10,-0.7347494959831238,26.299999237060547,1852
0.0,-0.00339508056640625,520780.9371285915,1.1158220188427034e-26,15589472143.08869,0.0,0.0,0,0,0.0,0.0,0.0,0
0.0,-0.8908902221679688,-1.3308551330566405,9.695600713348389,1.3941648210754394e-05,0.007415185846008606,3.24697212501532e-20,10940,48995,26.299999237060547,2.596606054393886e-42,0.0,0
-0.00264739990234375,515763.4371391058,1.0466346912635065e-20,15791593355.816196,0.0,0.0,0.0,0,0,0.0,0.0,0.0,0
-0.8871211265563964,-1.3349355628967285,9.699638338470459,-0.0018245316502746582,0.007681129110636292,-0.0014291654154612733,26.200000762939453,1854,0,0.0,0.0,0.0,3210791322
491302.68715312483,5.002725088864025e-22,15791593354.17995,0.0,0.0,0.0,0.0,0,0,0.0,0.0,2.4272579830029886e-27,3219946750
-1.3357930404663085,9.711615509796141,-0.001646592543263855,0.006512354268968048,-0.001787899869732361,3.936847766891e-311,-29.549999237060547,0,16868,-68.4000015258789,-0.9618164300918579,-1.2106444835662842,1092539443
1.0774817004291363e-21,15791593355.27078,0.0,0.0,0.0,0.0,0.0,0,0,-0.007912499830126762,-1.8461939096450806,-1.0186296007744711e-18,3220529514
9.707643119812012,-0.0018968231575680543,0.00771009098729187,-0.0011559983264263917,3.938969788585e-311,0.0,0.0,60621,48979,-1.191503882408142,9.969873428344727,-0.03222426399588585,1003009668
15791593347.089546,0.0,0.0,0.0,0.0,0.0,-4.4874736174284304e+35,20330,49132,6924284198912.0,-1.9162427186965942,-2137417.25,1076062660
-0.0013600763593566894,0.006564811884179383,-0.0008812732881645203,3.941091784376e-311,0.0,-0.00309600867331028,-1.251318335533142,36762,16670,-0.03808322176337242,0.005326324608176947,-0.008788435719907284,1108175364
0.0,0.0,0.0,0.0,0.0,-0.8927105255126953,1.4158594127195548e-37,21349,49141,-1.2507356017774498e-19,2.5532469749450684,-3.34679420960768e+16,3210748174
0.006101388568176727,-0.002598066757280426,3.943213780167e-311,0.0,-0.00781860202550888,485030.6871180773,-0.033289529383182526,58966,15234,-0.011984230019152164,35.35353088378906,0.0,0
0.0,0.0,0.0,0.0,-0.8882461242675781,-1.3307852622985838,-1.4134817257527706e+17,26141,16419,-1.3289452205693821e+34,-0.8749132752418518,2.8642374112778843e-16,1065193468
-0.0021473999828115846,3.945335775958e-311,3811784207.425,-0.0037689223138528405,512627.4371414423,6.01354265320598e-24,-0.013848443515598774,27140,16909,0.0,0.0,0.0,0
0.0,0.0,0.0,-0.8876847282409668,-1.3258744956970214,9.697921215057372,-6.950985387549089e+35,48003,48956,8.093440340452112e+26,0.9969227910041809,-3.135051329650196e-09,3211575334
3.9474577717487e-311,0.0,-0.0014404300600290298,495065.6871589661,1.2502278980261368e-22,15993706380.907028,0.0,0,0,0.0,0.0,0.0,0
0.0,0.0,-0.8814082855224609,-1.3273551277160645,9.689101274871826,-0.001221958168271637,5.597809997084417e+27,16726,16251,1.0197116353083402e-05,-0.811397910118103,26.299999237060547,1861
0.0,-0.0012908931821584702,506355.4371601343,4.925423493818771e-21,15993706375.998287,0.0,0.0,0,0,0.0,0.0,0.0,0
0.0,-0.8850979026794433,-1.3254101860046386,9.693844261932373,-0.001472455098683014,0.006305819469949036,-1.960580366744015e-35,10634,48989,26.399999618530273,2.6092177405728094e-42,0.0,0
-0.00234832800924778,500083.4371379375,5.770285223612648e-23,15791593351.452871,0.0,0.0,0.0,0,0,0.0,0.0,0.0,0
-0.8838620613098144,-1.3251327217102051,9.692115661621093,-0.0014588263718981933,0.00661101107087204,-0.0006024602976574707,26.399999618530273,1863,0,-29.549999237060547,29.549999237060547,-68.69999694824219,3212677939
536089.8742852211,1.2502278980765575e-22,15791593350.362041,0.0,0.0,0.0,0.0,0,0,0.0,0.0,-1.7572806404107005e+28,3219943189
-1.3332316734313965,9.694960698699951,-0.002590350248074951,0.005792894647524719,-0.0017728596675794983,3.955945780816e-311,0.0,0,0,0.0,-0.8326171636581421,-1.1938965320587158,1092602163
4.932874785700053e-26,15791593355.27078,0.0,0.0,0.0,0.0,0.0,0,0,5.508159611100958e-36,-1.8464128971099854,-6.160971569523213e+34,3220523905
9.696932070922852,-0.0010376740800073243,0.006759215984516449,-0.0012397014789123535,3.958067776607e-311,0.0,0.0,47514,48989,-1.2704589366912842,9.948339462280273,-0.03222426399588585,986804362
15993706372.180378,0.0,0.0,0.0,0.0,0.0,1.2378691849335155e-07,22368,49132,-3797.81103515625,-1.9164270162582397,1.890801030396881e-33,1076062253
-0.0004335359908746338,0.005660755253045807,-0.001872748181479187,3.960189772398e-311,0.0,-0.00384368933737278,-1.215429663658142,28928,16671,-0.03222426399588585,0.0037284272257238626,-0.013848443515598774,1108200036
0.0,0.0,0.0,0.0,0.0,-0.8942494766235352,-1.6013875621319166e-32,21585,49141,1.6048666882332426e+18,2.5531649589538574,-5.762698699244982e+32,3208716384
0.006375121578939362,-0.00223716182673584,3.962311768189e-311,2201171471.425,-0.00249786443993969,493811.4371414423,-0.03355584293603897,23137,15252,-0.015446340665221214,35.35353088378906,0.0,0
0.0,0.0,0.0,0.0,-0.8853020942687988,-1.3347478950500489,359918240.0,25926,16419,-9.422067205801023e-36,-0.8169906139373779,1.5792703466393824e-35,1064992937
-0.001511244039693451,3.96443376398e-311,0.0,-0.004827879369258881,499456.18710289,5.00272508899848e-22,-0.009587383829057217,27140,16909,0.0,0.0,0.0,0
0.0,0.0,0.0,-0.8898811897277832,-1.3289612953186034,9.694256533050536,2.19862910596783e-28,34776,49002,-4.645691348133774e+22,0.9795950651168823,6.300488320679259e+24,3210550035
3.966555759771e-311,0.0,-0.00264739990234375,499456.18714027404,1.0774817004694729e-21,15791593354.17995,0.0,0,0,0.0,0.0,0.0,0
0.0,0.0,-0.8914000282287597,-1.3325899391174316,9.69620424118042,-0.0006339721510392761,-8.475686462671481e+33,42053,16246,5.2212845549146976e-24,-0.8467515707015991,26.399999618530273,1870
0.0,-0.00257263146340847,479385.68713326455,5.002725087855609e-22,15993706380.361612,0.0,0.0,0,0,0.0,0.0,0.0,0
0.0,-0.8932068359374999,-1.334355549621582,9.689423600006103,-0.00159808972224411,0.007052236939341431,1.3144161984285667e-16,20814,48983,26.399999618530273,2.6218294267517327e-42,-29.399999618530273,1105461248
-0.0032455451039339776,495065.68713092804,1.046634691328045e-20,15791593348.725794,0.0,0.0,0.0,0,0,0.0,0.0,0.0,0
-0.8904604553222656,-1.3304920593261718,9.696189923095703,-0.0016180967197958374,0.007105367002723389,-0.001606258968831787,26.399999618530273,1872,0,0.0,0.0,0.0,3211714560
490048.18711924553,5.002725088191748e-22,15993706382.543276,0.0,0.0,0.0,0.0,0,0,0.0,0.0,-5.997867202076329e-30,3219952696
-1.3274449989318846,9.690333116149903,-5.14855614201355e-05,0.006739388750337067,-0.0016108728953886414,3.9750437170313e-311,0.0,0,0,0.0,-0.930712878704071,-1.236962914466858,1092564531
2.6927995225131578e-22,15791593350.362041,0.0,0.0,0.0,0.0,0.0,0,0,1.0819915827060375e+35,-1.8483448028564453,-3.410524663977684e+25,3220524888
9.701033473205566,0.00047052064025894166,0.007278006419201355,-0.0016145746892784118,3.9771657128223e-311,0.0,0.0,49152,49000,-1.260888695716858,9.847851753234863,-0.033822160214185715,998434390
15791593354.725365,0.0,0.0,0.0,0.0,0.0,-4.3258396092577796e+36,35994,49132,209642554654720.0,-1.9166487455368042,-6.908695754711886e-34,1076061059
-0.0022168352498554995,0.006318163221516723,-0.0012382700298362733,3.9792877345166e-311,2845416975.3875,-0.0023483294246545937,-1.1819336414337158,54323,16670,-0.033289529383182526,0.0021305298432707787,-0.012783179059624672,1108200036
0.0,0.0,0.0,0.0,0.0,-0.891077815246582,-6.193295008782851e-12,20026,49141,-3.7719435952139585e-25,2.5528652667999268,1.0783423194104424e-29,3209981686
