adisAccelX,adisAccelY,adisAccelZ,adisGyroX,adisGyroY,adisGyroZ,adisTemp,adisDataCNT,lsmMagX,lsmMagY,lsmMagZ,mpuAccelX,mpuAccelY,mpuAccelZ,mpuGyroX,mpuGyroY,mpuGyroZ,mpuTemp,year,month,day,hour,min,sec,fixType,fLon,fLat,height,hMSL,hAcc,vAcc,gSpeed,headMot,padding
0.0,0.0,0.0,0.0,0.0,0.0,0.0,0,-26.850000381469727,30.899999618530273,-68.0999984741211,-0.947460949420929,-1.203466773033142,9.969873428344727,-0.03462110832333565,0.004793691914528608,-0.015446340665221214,35.02411651611328,0,0,0,0,0,0,0,0.0,0.0,0,0,0,0,0,0,-1515870811
-0.942776830291748,-1.3471061218261717,9.689620651245116,-0.0017333716467877198,0.008552215807701264,-0.0016995827906895447,26.399999618530273,1485,0.0,0.0,0.0,-0.9881347417831421,-1.215429663658142,9.898096084594727,-0.037017956376075745,0.004527375567704439,-0.018642134964466095,34.83588409423828,0,0,0,0,0,0,0,0.0,0.0,0,0,0,0,0,0,-1515870811
-0.9457607116699218,-1.340673787689209,9.683249066162109,5.71980419190979e-05,0.007950694274321594,-0.0014321015505429078,26.399999618530273,1487,-27.149999618530273,30.149999618530273,-68.4000015258789,-0.9402831792831421,-1.2465331554412842,9.910058975219727,-0.03355584293603897,0.004527375567704439,-0.012516862712800503,35.02411651611328,0,0,0,0,0,0,0,0.0,0.0,0,0,0,0,0,0,-1515870811
-0.9445126083374024,-1.334946516418457,9.69026317062378,-0.0019461249269093323,0.006693915275036468,-0.00133016906052063,26.399999618530273,1488,0.0,0.0,0.0,-0.9522460699081421,-1.225000023841858,9.9052734375,-0.03595269098877907,0.002396845957264304,-0.012783179059624672,34.93000030517578,0,0,0,0,0,0,0,0.0,0.0,0,0,0,0,0,0,-1515870811
-0.9445464035034179,-1.3316753761291504,9.695363997650146,-0.0027314511795603945,0.0070321833364709475,-0.0036830452358251956,26.399999618530273,1489,0.0,0.0,0.0,-0.959423840045929,-1.191503882408142,9.845458984375,-0.03408847749233246,0.006391589529812336,-0.014381076209247112,34.93000030517578,0,0,0,0,0,0,0,0.0,0.0,0,0,0,0,0,0,-1515870811
-0.9483510139465332,-1.3324863479614257,9.695695594024658,-0.0019472367966567993,0.007223691249142456,-0.0023281287510450743,26.399999618530273,1490,0.0,0.0,0.0,-0.923535168170929,-1.251318335533142,9.902880668640137,-0.033822160214185715,0.0050600082613527775,-0.015446340665221214,35.02411651611328,0,0,0,0,0,0,0,0.0,0.0,0,0,0,0,0,0,-1515870811
-0.9521254928588867,-1.3228077713012696,9.693624443817138,-0.0005501225246943664,0.006611650229529266,-0.0006102966491111756,26.399999618530273,1491,-27.75,30.600000381469727,-68.69999694824219,-0.9857422113418579,-1.332666039466858,9.912450790405273,-0.03595269098877907,0.005858956836163998,-0.011451597325503826,35.11823654174805,0,0,0,0,0,0,0,0.0,0.0,0,0,0,0,0,0,-1515870811
-0.9524509956359863,-1.315561325073242,9.687102500152587,-0.00011255184479598999,0.0062472632158833315,-0.001334976066255188,26.399999618530273,1492,0.0,0.0,0.0,-0.9642089605331421,-1.2919921875,9.933984756469727,-0.03834953531622887,0.004527375567704439,-0.012783179059624672,35.02411651611328,0,0,0,0,0,0,0,0.0,0.0,0,0,0,0,0,0,-1515870811
-0.9440426536560058,-1.314625640106201,9.681916811370849,-0.00020554942942245484,0.008139672183974914,-0.00025464480378067017,26.399999618530273,1493,0.0,0.0,0.0,-1.0431640148162842,-1.2297852039337158,9.945947647094727,-0.03488742560148239,0.0050600082613527775,-0.013315810821950436,34.93000030517578,0,0,0,0,0,0,0,0.0,0.0,0,0,0,0,0,0,-1515870811
-0.9385022277832031,-1.3139852890014647,9.676825704193115,0.00014999588946517945,0.005893329109444122,-0.0007913183650625611,26.399999618530273,1494,0.0,0.0,0.0,-0.9618164300918579,-1.2297852039337158,9.950732231140137,-0.03728426992893219,0.006924221757799387,-0.013049494475126266,34.93000030517578,0,0,0,0,0,0,0,0.0,0.0,0,0,0,0,0,0,-1515870811
-0.9477748512268066,-1.261513882446289,9.682990705108642,-0.0014257299376786805,0.007519029154099884,0.0007478755500791931,26.399999618530273,1495,-26.549999237060547,30.899999618530273,-67.94999694824219,-0.887646496295929,-1.2297852039337158,9.922021865844727,-0.03542005643248558,0.0055926404893398285,-0.011451597325503826,34.83588409423828,0,0,0,0,0,0,0,0.0,0.0,0,0,0,0,0,0,-1515870811
-0.9362853546142578,-1.2719426071166993,9.72324878540039,-0.0033395773523980715,0.0057941929385472105,-0.0015032811880888366,26.399999618530273,1496,0.0,0.0,0.0,-0.9642089605331421,-1.248925805091858,9.840673446655273,-0.034354791045188904,0.005858956836163998,-0.011717913672327995,34.93000030517578,0,0,0,0,0,0,0,0.0,0.0,0,0,0,0,0,0,-1515870811
-0.935301107788086,-1.3110031272888183,9.7149872505188,-0.001071369725467987,0.005803980055485993,-0.0006056494330409241,26.399999618530273,1497,0.0,0.0,0.0,-0.9618164300918579,-1.225000023841858,10.032079696655273,-0.03089268133044243,0.005858956836163998,-0.013315810821950436,34.83588409423828,0,0,0,0,0,0,0,0.0,0.0,0,0,0,0,0,0,-1515870811
-0.9427989616394042,-1.2911885055541992,9.686631423950194,0.0015417638655760193,0.007503709320034485,-0.0014356901600871277,26.399999618530273,1498,-27.299999237060547,30.299999237060547,-68.8499984741211,-0.9857422113418579,-1.239355444908142,9.857421875,-0.035686373710632324,0.005326324608176947,-0.011185280978679657,35.02411651611328,0,0,0,0,0,0,0,0.0,0.0,0,0,0,0,0,0,-1515870811
-0.9420180839538574,-1.2799938194274902,9.610245413970947,0.0005794905334133911,0.008398877651091003,-0.0015260512152525329,26.399999618530273,1499,0.0,0.0,0.0,-0.95703125,-1.215429663658142,9.850244522094727,-0.032490577548742294,0.004527375567704439,-0.01704423874616623,35.02411651611328,0,0,0,0,0,0,0,0.0,0.0,0,0,0,0,0,0,-1515870811
-0.9458272926330566,-1.2460103126525879,9.690299919128417,0.003115911769784851,0.0060793642261131285,-0.0003495132590600586,26.399999618530273,1500,0.0,0.0,0.0,-0.918749988079071,-1.179540991783142,9.967480659484863,-0.037017956376075745,0.0050600082613527775,-0.011451597325503826,35.02411651611328,0,0,0,0,0,0,0,0.0,0.0,0,0,0,0,0,0,-1515870811
-0.9679654067993164,-1.1881667457580567,9.697272901153564,-0.003956724983366394,0.007698985605622558,0.001118254676136627,26.399999618530273,1501,0.0,0.0,0.0,-0.983349621295929,-1.1580078601837158,9.974658012390137,-0.035686373710632324,0.0055926404893398285,-0.009853700175881386,35.02411651611328,0,0,0,0,0,0,0,0.0,0.0,0,0,0,0,0,0,-1515870811
-0.9120009483337402,-1.1968298225402831,9.834501574707032,-0.0077908380309881595,0.0060710684793745424,-3.9907468660583495e-05,26.399999618530273,1502,-27.450000762939453,30.450000762939453,-67.6500015258789,-0.9618164300918579,-1.1938965320587158,10.017724990844727,-0.03408847749233246,0.0005326324608176947,-0.014114759862422943,35.02411651611328,0,0,0,0,0,0,0,0.0,0.0,0,0,0,0,0,0,-1515870811
-0.9141287353515625,-1.2890181381225585,9.827471282958983,-0.0028128906451353455,0.005053714318344879,-0.004309700351819763,26.399999618530273,1503,0.0,0.0,0.0,-0.9498535394668579,-1.2537109851837158,9.910058975219727,-0.03036004863679409,0.0026631623040884733,-0.011717913672327995,35.02411651611328,0,0,0,0,0,0,0,0.0,0.0,0,0,0,0,0,0,-1515870811
-0.9643163139343262,-1.3121960891723632,9.702039253234863,0.004423044487034607,0.007128802820155029,-0.003708252055369568,26.399999618530273,1504,0.0,0.0,0.0,-0.9378906488418579,-1.184326171875,9.888525009155273,-0.03302321210503578,0.008788435719907284,-0.010652649216353893,34.93000030517578,0,0,0,0,0,0,0,0.0,0.0,0,0,0,0,0,0,-1515870811
-0.9330073356628418,-1.2475275062561035,9.597165525817871,0.0031141607413801573,0.008597509519629516,-0.0006295379878547668,26.5,1505,0.0,0.0,0.0,-0.954638659954071,-1.1460449695587158,9.864599227905273,-0.030093733221292496,0.004527375567704439,-0.011185280978679657,34.93000030517578,0,0,0,0,0,0,0,0.0,0.0,0,0,0,0,0,0,-1515870811
-0.8965006309509277,-1.162389931488037,9.63329730606079,0.0014894860137370301,0.0044085369170961,-0.0016939302313146974,26.5,1506,-27.299999237060547,30.149999618530273,-68.8499984741211,-1.0048828125,-1.093408226966858,10.063183784484863,-0.03595269098877907,0.002929478418081999,-0.006125273182988167,35.02411651611328,0,0,0,0,0,0,0,0.0,0.0,0,0,0,0,0,0,-1515870811
-0.9085160835266113,-1.1482390281677246,9.688062185668946,-0.003240567681652069,0.0032185633132965088,0.00040753688091140747,26.5,1507,0.0,0.0,0.0,-0.9977051019668579,-1.1269042491912842,9.993799209594727,-0.04314322769641876,0.0037284272257238626,-0.014114759862422943,34.93000030517578,0,0,0,0,0,0,0,0.0,0.0,0,0,0,0,0,0,-1515870811
-0.9259788383483887,-1.1709319213867186,9.75042753829956,-0.0015983094330325317,0.007056784286871491,-0.0008798817865045166,26.5,1508,0.0,0.0,0.0,-0.966601550579071,-1.119726538658142,10.060791015625,-0.032490577548742294,0.0013315811520442367,-0.01970740035176277,35.02411651611328,0,0,0,0,0,0,0,0.0,0.0,0,0,0,0,0,0,-1515870811
-0.8971293182373047,-1.1907968620300293,9.764651303100585,-0.007385891074219055,0.008950158650851593,-0.004490888515338135,26.399999618530273,1509,0.0,0.0,0.0,-1.035986304283142,-1.225000023841858,9.926806449890137,-0.03169162943959236,0.002396845957264304,-0.0183758195489645,34.93000030517578,0,0,0,0,0,0,0,0.0,0.0,0,0,0,0,0,0,-1515870811
-0.94154169921875,-1.2677015380859376,9.717916065216064,-0.0026699920799264525,0.007008940598217011,-0.0012405004272338868,26.399999618530273,1510,-27.899999618530273,30.600000381469727,-68.4000015258789,-0.942675769329071,-1.2106444835662842,9.876562118530273,-0.03302321210503578,0.0034621108788996935,-0.014114759862422943,34.93000030517578,0,0,0,0,0,0,0,0.0,0.0,0,0,0,0,0,0,-1515870811
-0.9062027595520019,-1.27392822265625,9.673397401428222,-0.0011814181988565064,0.00512774353823761,-0.0011485148438146974,26.399999618530273,1511,0.0,0.0,0.0,-0.93310546875,-1.1005859375,9.943554878234863,-0.032490577548742294,0.004261059686541557,-0.011717913672327995,34.93000030517578,0,0,0,0,0,0,0,0.0,0.0,0,0,0,0,0,0,-1515870811
-0.9188714607238769,-1.2328150573730468,9.657039120483399,-0.00048409610382232665,0.005142830345709229,0.0005695436268103027,26.399999618530273,1512,0.0,0.0,0.0,-0.9139648675918579,-1.083837866783142,9.924413681030273,-0.034354791045188904,0.0010652649216353893,-0.013315810821950436,34.93000030517578,0,0,0,0,0,0,0,0.0,0.0,0,0,0,0,0,0,-1515870811
-0.9240769630432129,-1.1893770538330077,9.671637062072753,0.0005592039039491272,0.006657123704829865,-0.0007977166095375062,26.399999618530273,1513,0.0,0.0,0.0,-1.02880859375,-1.107763648033142,9.984228134155273,-0.03302321210503578,0.005326324608176947,-0.01491370890289545,34.83588409423828,0,0,0,0,0,0,0,0.0,0.0,0,0,0,0,0,0,-1515870811
-0.9201781448364258,-1.188260280609131,9.702981293487548,-0.0015343669356991578,0.006475715830523071,-0.000789800363251648,26.399999618530273,1514,-27.450000762939453,30.0,-68.55000305175781,-0.9977051019668579,-1.1149413585662842,10.046435356140137,-0.038882169872522354,0.003994743339717388,-0.015712657943367958,34.93000030517578,0,0,0,0,0,0,0,0.0,0.0,0,0,0,0,0,0,-1515870811
-0.915146964263916,-1.2261749053955078,9.734498426055907,-0.004745599898145599,0.0061143448467909246,-0.003854852414468231,26.5,1515,0.0,0.0,0.0,-0.897216796875,-1.179540991783142,9.97705078125,-0.03595269098877907,0.0026631623040884733,-0.012783179059624672,35.02411651611328,0,0,0,0,0,0,0,0.0,0.0,0,0,0,0,0,0,-1515870811
-0.9129110626220703,-1.256475112915039,9.761018808746337,-0.006133599501339874,0.006844963113125,-0.004213893132262573,26.5,1516,0.0,0.0,0.0,-0.921142578125,-1.17236328125,9.88134765625,-0.033822160214185715,0.002929478418081999,-0.01491370890289545,34.93000030517578,0,0,0,0,0,0,0,0.0,0.0,0,0,0,0,0,0,-1515870811
-0.9248935424804687,-1.3017894210815428,9.702329166412353,-0.0011662781281634523,0.008834237907299805,-0.0028798225407717895,26.5,1517,0.0,0.0,0.0,-0.9642089605331421,-1.179540991783142,9.845458984375,-0.033822160214185715,0.0034621108788996935,-0.011185280978679657,34.93000030517578,0,0,0,0,0,0,0,0.0,0.0,0,0,0,0,0,0,-1515870811
-0.940943367767334,-1.3126041358947753,9.676335150909424,-0.0029919283060882568,0.006413983756879273,-0.0025027655383268736,26.5,1518,-28.049999237060547,31.200000762939453,-68.55000305175781,-0.8661133050918579,-1.093408226966858,9.9052734375,-0.03275689482688904,0.0013315811520442367,-0.010652649216353893,35.02411651611328,0,0,0,0,0,0,0,0.0,0.0,0,0,0,0,0,0,-1515870811
-0.9327331985473633,-1.2751001747131347,9.693151012420653,-0.0019435416606697082,0.0056267932914779665,-0.00023977770709747315,26.5,1519,0.0,0.0,0.0,-1.0072753429412842,-1.107763648033142,9.933984756469727,-0.03169162943959236,0.003994743339717388,-0.018642134964466095,35.02411651611328,0,0,0,0,0,0,0,0.0,0.0,0,0,0,0,0,0,-1515870811
-0.9188713485717773,-1.241823151397705,9.718666474914551,-0.0017798038600741577,0.004502466608097687,-0.0028638568901464844,26.5,1520,0.0,0.0,0.0,-0.978564441204071,-1.153222680091858,9.938769340515137,-0.03994743525981903,0.004261059686541557,-0.014381076209247112,34.83588409423828,0,0,0,0,0,0,0,0.0,0.0,0,0,0,0,0,0,-1515870811
-0.9182626617431641,-1.2563483436584473,9.707973108673096,-0.0015301325095950318,0.0035725972882759095,-0.003677812124319153,26.5,1521,0.0,0.0,0.0,-0.966601550579071,-1.160400390625,9.989013671875,-0.03728426992893219,0.006657905410975218,-0.016245288774371147,34.93000030517578,0,0,0,0,0,0,0,0.0,0.0,0,0,0,0,0,0,-1515870811
-0.9184301048278808,-1.2813813278198243,9.713145488739013,-0.003657285810358429,0.007941586263456115,-0.0022386998022547915,26.399999618530273,1522,-27.899999618530273,30.75,-68.8499984741211,-0.945068359375,-1.203466773033142,9.943554878234863,-0.036751639097929,-0.00026631623040884733,-0.013049494475126266,34.93000030517578,0,0,0,0,0,0,0,0.0,0.0,0,0,0,0,0,0,-1515870811
-0.9237197212219238,-1.3075092529296874,9.690537606811523,-0.003741548226669464,0.006866028717202759,-0.002144071031471863,26.399999618530273,1523,0.0,0.0,0.0,-0.945068359375,-1.208251953125,9.814355850219727,-0.03542005643248558,0.004527375567704439,-0.009853700175881386,35.02411651611328,0,0,0,0,0,0,0,0.0,0.0,0,0,0,0,0,0,-1515870811
-0.9226399955749511,-1.3116580581665038,9.682962592315674,-0.003211639094509888,0.004622881435958099,-0.002319147240330505,26.399999618530273,1524,0.0,0.0,0.0,-0.9761718511581421,-1.1962890625,9.953125,-0.03355584293603897,0.0034621108788996935,-0.015978973358869553,34.93000030517578,0,0,0,0,0,0,0,0.0,0.0,0,0,0,0,0,0,-1515870811
-0.9148149192810058,-1.3087525337219237,9.713119132995605,-0.0019026887698286438,0.004536734833188782,-0.002051732579210663,26.399999618530273,1525,0.0,0.0,0.0,-0.906787097454071,-1.143652319908142,9.965087890625,-0.03781690448522568,0.002929478418081999,-0.009321067482233047,34.93000030517578,0,0,0,0,0,0,0,0.0,0.0,0,0,0,0,0,0,-1515870811
-0.9272814476013184,-1.2921748832702635,9.723234729003906,-0.0026058098980966185,0.006330533604695129,-0.0019650333705189516,26.399999618530273,1526,-27.75,30.600000381469727,-68.69999694824219,-0.966601550579071,-1.215429663658142,9.864599227905273,-0.031158998608589172,-0.00026631623040884733,-0.01491370890289545,35.02411651611328,0,0,0,0,0,0,0,0.0,0.0,0,0,0,0,0,0,-1515870811
-0.9340783882141113,-1.2886370826721192,9.696264167785644,-0.0012979381536494445,0.006689028374469757,-0.002151947330341644,26.399999618530273,1527,0.0,0.0,0.0,-0.9618164300918579,-1.1962890625,9.866991996765137,-0.03808322176337242,0.0050600082613527775,-0.016245288774371147,34.93000030517578,0,0,0,0,0,0,0,0.0,0.0,0,0,0,0,0,0,-1515870811
-0.935104019165039,-1.2999109481811524,9.689483377075195,-0.002778023208803101,0.005776329785658264,-0.0038641335308033753,26.399999618530273,1528,0.0,0.0,0.0,-0.947460949420929,-1.1986815929412842,9.895703315734863,-0.0391484834253788,0.006924221757799387,-0.011185280978679657,34.93000030517578,0,0,0,0,0,0,0,0.0,0.0,0,0,0,0,0,0,-1515870811
-0.931889291381836,-1.3033395500183105,9.69893293914795,-0.0026034063952293397,0.005774219230508881,-0.004136395145073852,26.399999618530273,1529,0.0,0.0,0.0,-0.9402831792831421,-1.1962890625,9.974658012390137,-0.03542005643248558,0.004261059686541557,-0.014381076209247112,35.02411651611328,0,0,0,0,0,0,0,0.0,0.0,0,0,0,0,0,0,-1515870811
-0.9277838890075684,-1.3038529823303222,9.710121269989013,-0.0042634345861003115,0.006409509646278687,-0.0030462035287310792,26.399999618530273,1530,-27.0,30.75,-68.55000305175781,-0.8804687261581421,-1.1962890625,9.974658012390137,-0.036751639097929,-0.0010652649216353893,-0.014381076209247112,35.02411651611328,0,0,0,0,0,0,0,0.0,0.0,0,0,0,0,0,0,-1515870811
-0.9236922065734863,-1.3036534637451171,9.685869873809814,-0.0020094349234881593,0.005952431311529541,-0.0011521500586776734,26.399999618530273,1531,0.0,0.0,0.0,-0.9402831792831421,-1.1819336414337158,10.012939453125,-0.03408847749233246,0.0018642136128619313,-0.011984230019152164,35.02411651611328,0,0,0,0,0,0,0,0.0,0.0,0,0,0,0,0,0,-1515870811
-0.9299716400146484,-1.3037838592529296,9.685648522949219,-0.003413293650864868,0.00692869289722168,-0.0011511513732757569,26.299999237060547,1532,0.0,0.0,0.0,-0.921142578125,-1.1962890625,9.933984756469727,-0.03488742560148239,0.004261059686541557,-0.011984230019152164,34.93000030517578,0,0,0,0,0,0,0,0.0,0.0,0,0,0,0,0,0,-1515870811
-0.9433575164794922,-1.3003405281066893,9.705665616607666,-0.002867844973851471,0.006505103812950134,-0.0025080652288597106,26.299999237060547,1533,0.0,0.0,0.0,-0.942675769329071,-1.2297852039337158,9.984228134155273,-0.032490577548742294,0.0055926404893398285,-0.014381076209247112,34.93000030517578,0,0,0,0,0,0,0,0.0,0.0,0,0,0,0,0,0,-1515870811
-0.9331442733764648,-1.296103758239746,9.704177283477783,-0.0022486733404685974,0.00723344507656784,-0.0034174148926234436,26.399999618530273,1534,-26.700000762939453,31.049999237060547,-68.25,-0.978564441204071,-1.248925805091858,9.972265243530273,-0.03542005643248558,0.0018642136128619313,-0.0183758195489645,35.02411651611328,0,0,0,0,0,0,0,0.0,0.0,0,0,0,0,0,0,-1515870811
-0.9335578903198242,-1.2945317596435546,9.683890127563476,-0.001883547299625244,0.006732304741886139,-0.0022383602492181396,26.399999618530273,1535,0.0,0.0,0.0,-0.9977051019668579,-1.236962914466858,9.957910537719727,-0.03302321210503578,0.0055926404893398285,-0.015712657943367958,34.93000030517578,0,0,0,0,0,0,0,0.0,0.0,0,0,0,0,0,0,-1515870811
-0.9430274902343749,-1.2957682739257812,9.656956875610351,-0.00014047508863357545,0.007281967871295624,-0.0010691393280703736,26.399999618530273,1536,0.0,0.0,0.0,-0.983349621295929,-1.2178223133087158,9.843066215515137,-0.032490577548742294,0.0037284272257238626,-0.015180024318397045,34.93000030517578,0,0,0,0,0,0,0,0.0,0.0,0,0,0,0,0,0,-1515870811
-0.9510490196228027,-1.2938164161682129,9.647395385742188,-0.0016399679300978089,0.00778352765384613,-0.002063144224403229,26.399999618530273,1537,-27.75,30.600000381469727,-68.25,-0.9091796875,-1.284814476966858,9.953125,-0.037550587207078934,0.007456854451447725,-0.012516862712800503,35.02411651611328,0,0,0,0,0,0,0,0.0,0.0,0,0,0,0,0,0,-1515870811
-0.9437313568115234,-1.2791576133728026,9.655639125823974,-0.0015635751547538757,0.007866818016365967,-0.0007062902899433899,26.399999618530273,1538,0.0,0.0,0.0,-0.9498535394668579,-1.1819336414337158,9.926806449890137,-0.03781690448522568,0.003195794764906168,-0.015978973358869553,34.93000030517578,0,0,0,0,0,0,0,0.0,0.0,0,0,0,0,0,0,-1515870811
-0.9512901092529297,-1.2848939315795898,9.68869423751831,-0.0014723086248240663,0.006517068064065094,-0.0012451942486228942,26.399999618530273,1539,0.0,0.0,0.0,-0.98095703125,-1.215429663658142,9.898096084594727,-0.03621900454163551,0.005858956836163998,-0.015978973358869553,34.93000030517578,0,0,0,0,0,0,0,0.0,0.0,0,0,0,0,0,0,-1515870811
-0.9632123260498047,-1.298205152130127,9.714642831420898,-0.004876168027592163,0.006956136772066346,-0.0019593408637280274,26.399999618530273,1540,0.0,0.0,0.0,-0.954638659954071,-1.2345702648162842,9.957910537719727,-0.03488742560148239,0.007989486679434776,-0.01704423874616623,34.93000030517578,0,0,0,0,0,0,0,0.0,0.0,0,0,0,0,0,0,-1515870811
-0.9637243377685547,-1.307669107055664,9.727904405975341,-0.0028968467979231262,0.007807276392703705,-0.00233368144187973,26.299999237060547,1541,-27.149999618530273,31.049999237060547,-68.0999984741211,-0.98095703125,-1.2226073741912842,9.869384765625,-0.035153742879629135,0.001597897382453084,-0.015446340665221214,34.93000030517578,0,0,0,0,0,0,0,0.0,0.0,0,0,0,0,0,0,-1515870811
-0.9656065864562988,-1.309484700012207,9.726323397827148,-0.0025505027005384828,0.008707504729796601,-0.0019758324886650085,26.299999237060547,1542,0.0,0.0,0.0,-0.995312511920929,-1.17236328125,9.850244522094727,-0.035686373710632324,0.003994743339717388,-0.010652649216353893,34.93000030517578,0,0,0,0,0,0,0,0.0,0.0,0,0,0,0,0,0,-1515870811
-0.9578168006896972,-1.2930183792114258,9.707594969177245,-0.0026340660370681762,0.007533163881488342,-0.0029675137769627383,26.299999237060547,1543,0.0,0.0,0.0,-0.9498535394668579,-1.1508300304412842,9.876562118530273,-0.03621900454163551,0.006657905410975218,-0.017310554161667824,35.02411651611328,0,0,0,0,0,0,0,0.0,0.0,0,0,0,0,0,0,-1515870811
-0.9633964797973632,-1.2960642433166503,9.68051711578369,-0.0005178316966990661,0.006683895131503906,-0.0017928799809365844,26.399999618530273,1544,0.0,0.0,0.0,-1.0551269054412842,-1.2106444835662842,9.869384765625,-0.035153742879629135,0.006125273182988167,-0.013582127168774605,35.02411651611328,0,0,0,0,0,0,0,0.0,0.0,0,0,0,0,0,0,-1515870811
-0.9505273628234863,-1.2816457450866698,9.667051125335693,-0.0014739597846885682,0.007311349195820008,-0.0027874041936784364,26.399999618530273,1545,-28.200000762939453,31.5,-68.25,-1.0790526866912842,-1.177148461341858,9.957910537719727,-0.03648532181978226,0.005326324608176947,-0.012783179059624672,34.93000030517578,0,0,0,0,0,0,0,0.0,0.0,0,0,0,0,0,0,-1515870811
-0.9460907005310059,-1.2743766441345215,9.658348234558105,-0.0018208098826768494,0.00650611581415741,-0.0025117071016253663,26.399999618530273,1546,0.0,0.0,0.0,-1.0024902820587158,-1.239355444908142,10.036865234375,-0.03488742560148239,0.0034621108788996935,-0.008788435719907284,35.02411651611328,0,0,0,0,0,0,0,0.0,0.0,0,0,0,0,0,0,-1515870811
-0.9471602951049805,-1.2636803993225096,9.682604640197754,-0.0020949090780868532,0.007126425948898468,-0.0012460730917765808,26.299999237060547,1547,0.0,0.0,0.0,-1.035986304283142,-1.2226073741912842,9.955517768859863,-0.03595269098877907,0.007190538104623556,-0.014114759862422943,34.93000030517578,0,0,0,0,0,0,0,0.0,0.0,0,0,0,0,0,0,-1515870811
-0.952023957824707,-1.2609330093383788,9.709408767700195,-0.0031556794224891663,0.006817446001350861,-0.0026915237371917724,26.200000762939453,1548,0.0,0.0,0.0,-1.021630883216858,-1.215429663658142,9.912450790405273,-0.03648532181978226,0.003195794764906168,-0.010918965563178062,35.02411651611328,0,0,0,0,0,0,0,0.0,0.0,0,0,0,0,0,0,-1515870811
-0.9488159965515136,-1.271383790588379,9.714745151519775,-0.002285538147604675,0.00737459927127472,-0.000523204624161377,26.200000762939453,1549,-28.049999237060547,30.75,-67.94999694824219,-1.0312011241912842,-1.232177734375,9.840673446655273,-0.03648532181978226,0.002929478418081999,-0.013582127168774605,35.02411651611328,0,0,0,0,0,0,0,0.0,0.0,0,0,0,0,0,0,-1515870811
-0.943994465637207,-1.2725804161071776,9.712820359802246,-0.002705711727801666,0.007126592396465454,-0.0011533950864787293,26.299999237060547,1550,0.0,0.0,0.0,-0.971386730670929,-1.179540991783142,9.991406440734863,-0.031425315886735916,0.004261059686541557,-0.013582127168774605,34.93000030517578,0,0,0,0,0,0,0,0.0,0.0,0,0,0,0,0,0,-1515870811
-0.9419172966003417,-1.2782928085327148,9.707043405151367,-0.0019028285857849122,0.004708528696026459,-0.0029578797917855833,26.299999237060547,1551,0.0,0.0,0.0,-0.992919921875,-1.1627929210662842,9.910058975219727,-0.03621900454163551,0.004261059686541557,-0.013315810821950436,35.02411651611328,0,0,0,0,0,0,0,0.0,0.0,0,0,0,0,0,0,-1515870811
-0.9391302421569824,-1.2671750213623048,9.697209198760985,1.2337093665008545e-05,0.006575584370714722,-0.005144394952838898,26.299999237060547,1552,0.0,0.0,0.0,-0.9881347417831421,-1.1627929210662842,9.941162109375,-0.037017956376075745,0.008788435719907284,-0.013582127168774605,34.93000030517578,0,0,0,0,0,0,0,0.0,0.0,0,0,0,0,0,0,-1515870811
-0.9249433380126952,-1.2592045585632323,9.687770291137696,-0.0023325762300349428,0.005981552977849427,-0.0029599503995188904,26.399999618530273,1553,-27.899999618530273,30.75,-69.0,-0.954638659954071,-1.2226073741912842,9.974658012390137,-0.03542005643248558,0.0055926404893398285,-0.012783179059624672,35.02411651611328,0,0,0,0,0,0,0,0.0,0.0,0,0,0,0,0,0,-1515870811
-0.9243648574829101,-1.257219765472412,9.686232125091552,-0.001183828359626465,0.0061067015745149235,-0.002057485007125702,26.399999618530273,1554,0.0,0.0,0.0,-0.9737793207168579,-1.167578101158142,10.005762100219727,-0.036751639097929,0.003994743339717388,-0.012516862712800503,34.93000030517578,0,0,0,0,0,0,0,0.0,0.0,0,0,0,0,0,0,-1515870811
-0.9217558631896973,-1.2630528709411621,9.687586698150634,-0.0025846044780625916,0.0078078556302368166,-0.0022396984876567076,26.399999618530273,1555,0.0,0.0,0.0,-0.992919921875,-1.1699707508087158,9.996191024780273,-0.03355584293603897,0.004261059686541557,-0.016245288774371147,34.93000030517578,0,0,0,0,0,0,0,0.0,0.0,0,0,0,0,0,0,-1515870811
-0.9190658576965332,-1.269281649017334,9.696724701690673,-0.002673241136434021,0.006540969934684296,-0.0025070598855551148,26.399999618530273,1556,0.0,0.0,0.0,-0.935498058795929,-1.189111351966858,9.898096084594727,-0.037550587207078934,0.004261059686541557,-0.017310554161667824,35.02411651611328,0,0,0,0,0,0,0,0.0,0.0,0,0,0,0,0,0,-1515870811
-0.9204122436523438,-1.27138823928833,9.70647483139038,-0.003078427777699585,0.00663276909682846,-0.001243190219916382,26.200000762939453,1557,-27.299999237060547,30.149999618530273,-68.25,-0.992919921875,-1.1627929210662842,9.9052734375,-0.03302321210503578,0.002396845957264304,-0.014381076209247112,34.93000030517578,0,0,0,0,0,0,0,0.0,0.0,0,0,0,0,0,0,-1515870811
-0.9270929199218749,-1.2848446968078613,9.709623052978515,-0.0029227526972488405,0.008208874424425049,-0.0026995132204071046,26.200000762939453,1558,0.0,0.0,0.0,-0.9378906488418579,-1.2106444835662842,9.895703315734863,-0.034354791045188904,0.0050600082613527775,-0.010652649216353893,34.93000030517578,0,0,0,0,0,0,0,0.0,0.0,0,0,0,0,0,0,-1515870811
-0.9282659934997558,-1.2816406982421875,9.717370819091796,-0.0012618656369322205,0.006964732124425507,-0.0015237076335093689,26.200000762939453,1559,0.0,0.0,0.0,-0.966601550579071,-1.201074242591858,9.859814643859863,-0.03648532181978226,0.0055926404893398285,-0.013848443515598774,34.93000030517578,0,0,0,0,0,0,0,0.0,0.0,0,0,0,0,0,0,-1515870811
-0.9191205505371094,-1.284748545074463,9.709656549072266,-0.0012334031029776,0.005665522311364289,-0.001245294117163086,26.299999237060547,1560,0.0,0.0,0.0,-0.930712878704071,-1.1819336414337158,9.991406440734863,-0.034354791045188904,0.003994743339717388,-0.017310554161667824,34.93000030517578,0,0,0,0,0,0,0,0.0,0.0,0,0,0,0,0,0,-1515870811
-0.9201936218261718,-1.2829785606384276,9.701825715637206,-0.0017580524920204163,0.006448684745644531,-0.0040534043881745915,26.299999237060547,1561,-28.200000762939453,31.049999237060547,-68.55000305175781,-0.966601550579071,-1.1819336414337158,9.859814643859863,-0.03648532181978226,0.008788435719907284,-0.014114759862422943,34.93000030517578,0,0,0,0,0,0,0,0.0,0.0,0,0,0,0,0,0,-1515870811
-0.9139603202819824,-1.2836769317626953,9.687632568359374,-0.0020200542782618713,0.0062842212336569215,-0.0022408303311122132,26.299999237060547,1562,0.0,0.0,0.0,-0.98095703125,-1.1962890625,9.895703315734863,-0.040213748812675476,0.004793691914528608,-0.017576871439814568,34.93000030517578,0,0,0,0,0,0,0,0.0,0.0,0,0,0,0,0,0,-1515870811
-0.9081536079406738,-1.2840931282043457,9.671718783569336,-0.0006244912976237488,0.0065493256025469975,-0.002880488331039734,26.299999237060547,1563,0.0,0.0,0.0,-0.9091796875,-1.2058594226837158,9.893310546875,-0.03542005643248558,0.003994743339717388,-0.011984230019152164,34.93000030517578,0,0,0,0,0,0,0,0.0,0.0,0,0,0,0,0,0,-1515870811
-0.9099523780822754,-1.2851958824157714,9.66687343902588,-0.0023715582502230833,0.0070956065173953245,-0.0016991300533073426,26.299999237060547,1564,0.0,0.0,0.0,-1.009667992591858,-1.236962914466858,9.902880668640137,-0.03595269098877907,0.0034621108788996935,-0.017576871439814568,35.02411651611328,0,0,0,0,0,0,0,0.0,0.0,0,0,0,0,0,0,-1515870811
-0.9159608520507813,-1.282395407104492,9.672877987670898,-0.0015014436069493103,0.007906652248097076,-0.001342785786098175,26.299999237060547,1565,-27.75,30.600000381469727,-69.30000305175781,-0.887646496295929,-1.165185570716858,9.955517768859863,-0.03648532181978226,0.001597897382453084,-0.011984230019152164,34.93000030517578,0,0,0,0,0,0,0,0.0,0.0,0,0,0,0,0,0,-1515870811
-0.9181444908142089,-1.2808043800354003,9.697254209136963,-0.002092625417467804,0.006403630718212738,-0.0018774220291601562,26.399999618530273,1566,0.0,0.0,0.0,-0.954638659954071,-1.201074242591858,9.9052734375,-0.032490577548742294,0.005326324608176947,-0.015446340665221214,35.02411651611328,0,0,0,0,0,0,0,0.0,0.0,0,0,0,0,0,0,-1515870811
-0.9239808860778809,-1.2944319816589356,9.729093479919433,-0.0035566782429693605,0.00653971824898056,-0.00042213766148742674,26.399999618530273,1567,0.0,0.0,0.0,-0.906787097454071,-1.232177734375,9.943554878234863,-0.03355584293603897,0.003195794764906168,-0.013315810821950436,34.93000030517578,0,0,0,0,0,0,0,0.0,0.0,0,0,0,0,0,0,-1515870811
-0.9217321243286133,-1.3099953285217285,9.741944764709473,-0.0034509707221278382,0.005652286400837555,-0.0025007814833283995,26.399999618530273,1568,0.0,0.0,0.0,-0.954638659954071,-1.1819336414337158,9.890917778015137,-0.03728426992893219,0.003994743339717388,-0.01491370890289545,34.93000030517578,0,0,0,0,0,0,0,0.0,0.0,0,0,0,0,0,0,-1515870811
-0.9188681335449218,-1.318374062347412,9.731312558746337,-0.0027681695128375246,0.0056292167680532836,-0.002142213476624298,26.399999618530273,1569,-27.450000762939453,30.450000762939453,-68.4000015258789,-0.88525390625,-1.215429663658142,9.859814643859863,-0.03302321210503578,-0.00026631623040884733,-0.013848443515598774,35.02411651611328,0,0,0,0,0,0,0,0.0,0.0,0,0,0,0,0,0,-1515870811
-0.9228641876220702,-1.3179081825256347,9.708098457336426,-0.0021971611474377443,0.007098049967678681,-0.0014280868352272034,26.299999237060547,1570,0.0,0.0,0.0,-0.875683605670929,-1.1962890625,9.907666206359863,-0.03542005643248558,0.006924221757799387,-0.010120016522705555,34.93000030517578,0,0,0,0,0,0,0,0.0,0.0,0,0,0,0,0,0,-1515870811
-0.9149334266662598,-1.3065542404174804,9.671629697418213,-9.826398564590454e-05,0.005480425958973084,-0.0020635769880773926,26.299999237060547,1571,0.0,0.0,0.0,-0.95703125,-1.17236328125,9.998583793640137,-0.033289529383182526,0.0037284272257238626,-0.0183758195489645,35.02411651611328,0,0,0,0,0,0,0,0.0,0.0,0,0,0,0,0,0,-1515870811
-0.9192456748962402,-1.2924110008239746,9.665752703094482,-0.0025360350780160522,0.005734052103643799,-0.004681617453396149,26.399999618530273,1572,0.0,0.0,0.0,-0.918749988079071,-1.2106444835662842,9.835888862609863,-0.035686373710632324,0.004527375567704439,-0.013049494475126266,34.93000030517578,0,0,0,0,0,0,0,0.0,0.0,0,0,0,0,0,0,-1515870811
-0.9172440589904785,-1.2916992088317871,9.677305453491211,-0.004616822744519806,0.007850972207988891,-0.002235044613683777,26.399999618530273,1573,-27.149999618530273,30.899999618530273,-68.8499984741211,-0.9283202886581421,-1.2058594226837158,9.912450790405273,-0.0391484834253788,0.003195794764906168,-0.01491370890289545,34.93000030517578,0,0,0,0,0,0,0,0.0,0.0,0,0,0,0,0,0,-1515870811
-0.9207270545959473,-1.3004641571044921,9.693959965515136,-0.004526175399539184,0.006682869814491272,-0.0025029253279911803,26.399999618530273,1574,0.0,0.0,0.0,-0.9283202886581421,-1.215429663658142,10.0009765625,-0.032490577548742294,0.005326324608176947,-0.013315810821950436,34.93000030517578,0,0,0,0,0,0,0,0.0,0.0,0,0,0,0,0,0,-1515870811
-0.9268356056213378,-1.3156783370971679,9.718426319885253,-0.0037437653082617187,0.007418548086861725,-0.00042547992863250735,26.399999618530273,1575,0.0,0.0,0.0,-0.93310546875,-1.179540991783142,9.938769340515137,-0.03462110832333565,0.0050600082613527775,-0.013049494475126266,34.93000030517578,0,0,0,0,0,0,0,0.0,0.0,0,0,0,0,0,0,-1515870811
-0.9340699394226074,-1.3230023178100585,9.720004823303222,-0.0030461635813150024,0.007597086405113678,-0.0006096375167459106,26.399999618530273,1576,0.0,0.0,0.0,-0.9498535394668579,-1.208251953125,9.924413681030273,-0.037550587207078934,0.0021305298432707787,-0.015712657943367958,34.93000030517578,0,0,0,0,0,0,0,0.0,0.0,0,0,0,0,0,0,-1515870811
-0.9293838134765625,-1.3235712280273437,9.713214910888672,-0.0013829928603793335,0.005883288992203522,-0.0019677165052987672,26.399999618530273,1577,-27.149999618530273,30.450000762939453,-68.69999694824219,-0.990527331829071,-1.201074242591858,9.874170303344727,-0.035686373710632324,0.007190538104623556,-0.017576871439814568,35.02411651611328,0,0,0,0,0,0,0,0.0,0.0,0,0,0,0,0,0,-1515870811
-0.9285843185424805,-1.3158324714660643,9.688389894104004,-0.0005128715592028809,0.006778710323561859,-0.002245544126209259,26.399999618530273,1578,0.0,0.0,0.0,-1.0024902820587158,-1.1699707508087158,9.890917778015137,-0.03542005643248558,0.006125273182988167,-0.012516862712800503,35.02411651611328,0,0,0,0,0,0,0,0.0,0.0,0,0,0,0,0,0,-1515870811
-0.9265068504333496,-1.305335969543457,9.665845191192627,6.419549763519288e-05,0.006268894741688843,-0.0022489463144784545,26.299999237060547,1579,0.0,0.0,0.0,-0.894824206829071,-1.2058594226837158,9.936376571655273,-0.035686373710632324,0.0050600082613527775,-0.012516862712800503,35.02411651611328,0,0,0,0,0,0,0,0.0,0.0,0,0,0,0,0,0,-1515870811
-0.9253793106079101,-1.2966963325500487,9.660015188598633,-0.0009980395853565979,0.006415495100787506,-0.00288101430535141,26.200000762939453,1580,0.0,0.0,0.0,-0.9139648675918579,-1.232177734375,9.924413681030273,-0.035153742879629135,0.003195794764906168,-0.0183758195489645,35.02411651611328,0,0,0,0,0,0,0,0.0,0.0,0,0,0,0,0,0,-1515870811
-0.9303090309143066,-1.3006230392456055,9.671502890777587,-0.003357487110605774,0.007416444189615021,-0.0008841361863166809,26.200000762939453,1581,-27.450000762939453,31.049999237060547,-68.4000015258789,-0.9618164300918579,-1.236962914466858,9.972265243530273,-0.03462110832333565,0.004793691914528608,-0.017843186855316162,34.93000030517578,0,0,0,0,0,0,0,0.0,0.0,0,0,0,0,0,0,-1515870811
-0.9303664154052734,-1.3060781547546387,9.696684027862549,-0.0025201959275416566,0.006702250969191132,-0.00042721764123184207,26.299999237060547,1582,0.0,0.0,0.0,-1.012060523033142,-1.2656738758087158,9.945947647094727,-0.033289529383182526,0.0050600082613527775,-0.013582127168774605,34.93000030517578,0,0,0,0,0,0,0,0.0,0.0,0,0,0,0,0,0,-1515870811
-0.9403336715698242,-1.3136962730407715,9.722269734954834,-0.002756704604423523,0.0068287244884898375,-0.0013301224552018738,26.399999618530273,1583,0.0,0.0,0.0,-0.947460949420929,-1.2465331554412842,9.895703315734863,-0.03621900454163551,0.000798948691226542,-0.014114759862422943,34.93000030517578,0,0,0,0,0,0,0,0.0,0.0,0,0,0,0,0,0,-1515870811
-0.9404140472412109,-1.3224933715820313,9.736330393218994,-0.0038921899326945495,0.0071901620512487795,-0.0008746686487065124,26.399999618530273,1584,0.0,0.0,0.0,-0.978564441204071,-1.225000023841858,10.003369331359863,-0.03302321210503578,0.0021305298432707787,-0.011185280978679657,35.02411651611328,0,0,0,0,0,0,0,0.0,0.0,0,0,0,0,0,0,-1515870811
-0.9499051055908203,-1.3241169975280762,9.723092594909668,-0.002495654898265228,0.00718165990952713,-0.002056699374609528,26.399999618530273,1585,-28.049999237060547,30.75,-68.69999694824219,-0.942675769329071,-1.1938965320587158,9.893310546875,-0.03595269098877907,0.003195794764906168,-0.011984230019152164,34.93000030517578,0,0,0,0,0,0,0,0.0,0.0,0,0,0,0,0,0,-1515870811
-0.9441676284790039,-1.3119200454711915,9.699232871246338,-0.0011878763644555665,0.00737290816399414,-0.000794154631604004,26.399999618530273,1586,0.0,0.0,0.0,-0.9618164300918579,-1.275244116783142,9.910058975219727,-0.03621900454163551,0.0021305298432707787,-0.010652649216353893,34.93000030517578,0,0,0,0,0,0,0,0.0,0.0,0,0,0,0,0,0,-1515870811
-0.93916826171875,-1.3057221839904785,9.667344552612304,-0.0009225522847770691,0.008086515488982239,-0.0023365509979345702,26.399999618530273,1587,0.0,0.0,0.0,-0.9498535394668579,-1.287207007408142,9.902880668640137,-0.03861585259437561,0.005858956836163998,-0.012516862712800503,34.93000030517578,0,0,0,0,0,0,0,0.0,0.0,0,0,0,0,0,0,-1515870811
-0.9375533462524414,-1.2888484893798828,9.65136407470703,-0.0003817441659312439,0.0072187244537435915,-0.0020623452760816954,26.399999618530273,1588,-28.5,31.200000762939453,-68.25,-0.9283202886581421,-1.260888695716858,9.922021865844727,-0.03462110832333565,0.0037284272257238626,-0.013049494475126266,35.02411651611328,0,0,0,0,0,0,0,0.0,0.0,0,0,0,0,0,0,-1515870811
-0.9352460037231445,-1.2891924224853515,9.659062979888915,-0.003039758678937378,0.005606559925235138,-0.0026854184404347227,26.200000762939453,1589,0.0,0.0,0.0,-0.9259277582168579,-1.244140625,9.972265243530273,-0.035153742879629135,0.004261059686541557,-0.010652649216353893,34.93000030517578,0,0,0,0,0,0,0,0.0,0.0,0,0,0,0,0,0,-1515870811
-0.9383864868164062,-1.2878193817138672,9.677352819061278,-0.002953964945010071,0.005974488943106537,-0.001600353409155121,26.200000762939453,1590,0.0,0.0,0.0,-0.978564441204071,-1.236962914466858,9.974658012390137,-0.03648532181978226,0.008522119373083115,-0.011185280978679657,34.93000030517578,0,0,0,0,0,0,0,0.0,0.0,0,0,0,0,0,0,-1515870811
-0.942276968383789,-1.295019546508789,9.707507565307617,-0.0019982563048893736,0.0072423866398663335,-0.0002498178243380737,26.200000762939453,1591,0.0,0.0,0.0,-1.024023413658142,-1.239355444908142,9.943554878234863,-0.03621900454163551,0.004793691914528608,-0.014647392556071281,34.93000030517578,0,0,0,0,0,0,0,0.0,0.0,0,0,0,0,0,0,-1515870811
-0.9520536033630371,-1.305561619567871,9.717198516082764,-0.002462578437753754,0.00805383850263153,-0.001784957076748047,26.5,1592,-27.899999618530273,30.899999618530273,-69.30000305175781,-0.983349621295929,-1.2656738758087158,9.9052734375,-0.033289529383182526,0.003195794764906168,-0.015712657943367958,34.93000030517578,0,0,0,0,0,0,0,0.0,0.0,0,0,0,0,0,0,-1515870811
-0.9562919059753417,-1.3107901504516601,9.718123957824707,-0.0025321535207539366,0.006766033676860199,0.0018434001464682007,26.5,1593,0.0,0.0,0.0,-0.93310546875,-1.215429663658142,9.843066215515137,-0.035153742879629135,0.006657905410975218,-0.013848443515598774,35.02411651611328,0,0,0,0,0,0,0,0.0,0.0,0,0,0,0,0,0,-1515870811
-0.9582748672485352,-1.3098901672363281,9.699534074401855,-0.0014826749792959594,0.0062099789608784485,-0.0004221576351954651,26.5,1594,0.0,0.0,0.0,-0.942675769329071,-1.191503882408142,9.926806449890137,-0.035686373710632324,0.002396845957264304,-0.007723170332610607,35.02411651611328,0,0,0,0,0,0,0,0.0,0.0,0,0,0,0,0,0,-1515870811
-0.9557060607910156,-1.299794758605957,9.678314112091064,8.880976384109497e-05,0.005854280510229187,-0.00024526381890533445,26.5,1595,0.0,0.0,0.0,-0.954638659954071,-1.213037133216858,9.88134765625,-0.035686373710632324,0.007456854451447725,-0.013582127168774605,35.02411651611328,0,0,0,0,0,0,0,0.0,0.0,0,0,0,0,0,0,-1515870811
-0.9516067520141601,-1.2915993934631347,9.666676088714599,-0.0007879028609880066,0.007291428751003113,0.00011495534766326905,26.5,1596,-27.75,30.75,-68.69999694824219,-0.93310546875,-1.184326171875,9.838281631469727,-0.03542005643248558,0.005858956836163998,-0.014647392556071281,34.93000030517578,0,0,0,0,0,0,0,0.0,0.0,0,0,0,0,0,0,-1515870811
-0.9489154006958007,-1.2853205207824707,9.671492684936522,-0.00122742430637146,0.006650186170237884,-0.0003345130043232727,26.5,1597,0.0,0.0,0.0,-0.9881347417831421,-1.2106444835662842,9.941162109375,-0.035686373710632324,0.007456854451447725,-0.013049494475126266,35.02411651611328,0,0,0,0,0,0,0,0.0,0.0,0,0,0,0,0,0,-1515870811
-0.949650894165039,-1.2841911865234374,9.67903020324707,-0.0021395436576498415,0.006639753236739197,-0.0035950011307922364,26.5,1598,0.0,0.0,0.0,-1.0048828125,-1.2226073741912842,9.953125,-0.036751639097929,0.003994743339717388,-0.009587383829057217,34.93000030517578,0,0,0,0,0,0,0,0.0,0.0,0,0,0,0,0,0,-1515870811
-0.956416731262207,-1.2879748992919922,9.702558517456055,-0.0020545755036547853,0.005224163284841309,-0.0002402770497984314,26.399999618530273,1599,0.0,0.0,0.0,-0.9857422113418579,-1.213037133216858,9.9052734375,-0.033822160214185715,0.003994743339717388,-0.012516862712800503,35.02411651611328,0,0,0,0,0,0,0,0.0,0.0,0,0,0,0,0,0,-1515870811
-0.9595423728942871,-1.2954186958312988,9.715981366729736,-0.0036301881464530943,0.007016350843899231,-0.00024108931392532348,26.399999618530273,1600,-27.600000381469727,30.75,-68.69999694824219,-1.021630883216858,-1.2226073741912842,9.878954887390137,-0.03036004863679409,0.004261059686541557,-0.013049494475126266,34.93000030517578,0,0,0,0,0,0,0,0.0,0.0,0,0,0,0,0,0,-1515870811
-0.960406243133545,-1.299496620941162,9.715368268585205,-0.0009389307253684998,0.0064548433056230165,-0.00015927700580032348,26.399999618530273,1601,0.0,0.0,0.0,-0.959423840045929,-1.244140625,9.816747665405273,-0.03621900454163551,0.005326324608176947,-0.011717913672327995,34.93000030517578,0,0,0,0,0,0,0,0.0,0.0,0,0,0,0,0,0,-1515870811
-0.9537659790039063,-1.2871881896972657,9.701344396209716,-0.00068475863267807,0.005710662891530914,-0.0012451010379853822,26.299999237060547,1602,0.0,0.0,0.0,-0.95703125,-1.1938965320587158,9.984228134155273,-0.034354791045188904,0.001597897382453084,-0.017843186855316162,34.93000030517578,0,0,0,0,0,0,0,0.0,0.0,0,0,0,0,0,0,-1515870811
-0.9540485649108886,-1.2814495536804198,9.69071286315918,-0.0012081696518225099,0.005707879888210907,-0.0015149325177778626,26.299999237060547,1603,0.0,0.0,0.0,-0.98095703125,-1.1962890625,9.993799209594727,-0.03488742560148239,0.006391589529812336,-0.010652649216353893,34.93000030517578,0,0,0,0,0,0,0,0.0,0.0,0,0,0,0,0,0,-1515870811
-0.9436997299194335,-1.2625744674682617,9.677222012329102,-0.0014675415665055848,0.004898179053850403,-0.0017828531795013429,26.299999237060547,1604,-27.75,31.049999237060547,-69.75,-1.0264160633087158,-1.203466773033142,9.910058975219727,-0.036751639097929,0.004793691914528608,-0.011451597325503826,34.93000030517578,0,0,0,0,0,0,0,0.0,0.0,0,0,0,0,0,0,-1515870811
-0.9381143684387206,-1.2656176025390624,9.671306213378905,-0.0013777664067759704,0.004001406168248138,-0.0017800169129598999,26.299999237060547,1605,0.0,0.0,0.0,-0.9378906488418579,-1.191503882408142,9.986620903015137,-0.035686373710632324,0.0010652649216353893,-0.011984230019152164,34.93000030517578,0,0,0,0,0,0,0,0.0,0.0,0,0,0,0,0,0,-1515870811
-0.9315186286926269,-1.260252619934082,9.680711363220215,-0.001379650593234253,0.004547101187660675,-0.0008763863875978088,26.299999237060547,1606,0.0,0.0,0.0,-0.9761718511581421,-1.272851586341858,9.979443550109863,-0.03462110832333565,0.0050600082613527775,-0.010652649216353893,34.93000030517578,0,0,0,0,0,0,0,0.0,0.0,0,0,0,0,0,0,-1515870811
-0.9309394378662109,-1.2639754341125489,9.697714182281494,-0.001039112186986084,0.00587697730046341,-0.0016976719726205444,26.399999618530273,1607,0.0,0.0,0.0,-1.0144531726837158,-1.1699707508087158,10.005762100219727,-0.03408847749233246,-0.0013315811520442367,-0.01491370890289545,34.83588409423828,0,0,0,0,0,0,0,0.0,0.0,0,0,0,0,0,0,-1515870811
-0.9399588218688965,-1.2711485328674317,9.709078629302978,-0.0017607755742163086,0.006673548750740051,0.0013790713557011414,26.399999618530273,1608,-27.450000762939453,30.450000762939453,-69.1500015258789,-0.995312511920929,-1.227392554283142,9.878954887390137,-0.03355584293603897,0.0034621108788996935,-0.011717913672327995,35.02411651611328,0,0,0,0,0,0,0,0.0,0.0,0,0,0,0,0,0,-1515870811
-0.932194083404541,-1.268501107788086,9.719028838348388,-0.003414239073045349,0.005568416800784607,-0.0018712568112789916,26.399999618530273,1609,0.0,0.0,0.0,-0.983349621295929,-1.2465331554412842,9.890917778015137,-0.03302321210503578,0.0034621108788996935,-0.015180024318397045,35.02411651611328,0,0,0,0,0,0,0,0.0,0.0,0,0,0,0,0,0,-1515870811
-0.9387275413513183,-1.2751016700744628,9.722036196899413,-0.00044494097816452025,0.004587015314223938,-0.0016064653638148498,26.399999618530273,1610,0.0,0.0,0.0,-0.9737793207168579,-1.1986815929412842,9.866991996765137,-0.03355584293603897,0.006125273182988167,-0.014114759862422943,34.93000030517578,0,0,0,0,0,0,0,0.0,0.0,0,0,0,0,0,0,-1515870811
-0.926037979888916,-1.2648483886718749,9.714400134277344,0.0001627324572909546,0.0057497381223565675,-0.002065427885022278,26.399999618530273,1611,0.0,0.0,0.0,-1.000097632408142,-1.2058594226837158,9.898096084594727,-0.03595269098877907,0.003195794764906168,-0.011717913672327995,34.93000030517578,0,0,0,0,0,0,0,0.0,0.0,0,0,0,0,0,0,-1515870811
-0.9306435806274413,-1.2695751136779785,9.7036270652771,-0.0009705557630958557,0.005389891798338013,-0.0020602280630296326,26.399999618530273,1612,-27.75,30.600000381469727,-68.55000305175781,-1.0072753429412842,-1.1938965320587158,9.907666206359863,-0.032490577548742294,0.0050600082613527775,-0.011717913672327995,34.93000030517578,0,0,0,0,0,0,0,0.0,0.0,0,0,0,0,0,0,-1515870811
-0.9159399917602539,-1.2604812606811524,9.694641775512695,-0.00053536861235672,0.005750577018094177,-0.0018819027976634216,26.399999618530273,1613,0.0,0.0,0.0,-0.9881347417831421,-1.2465331554412842,9.902880668640137,-0.037017956376075745,0.0034621108788996935,-0.017576871439814568,34.93000030517578,0,0,0,0,0,0,0,0.0,0.0,0,0,0,0,0,0,-1515870811
-0.9172709381103515,-1.2559736061096192,9.688194973754882,-0.0010619953984953307,0.006827812355822754,-0.0017027452944622804,26.399999618530273,1614,0.0,0.0,0.0,-0.9259277582168579,-1.160400390625,9.938769340515137,-0.031425315886735916,0.0037284272257238626,-0.009054751135408878,34.93000030517578,0,0,0,0,0,0,0,0.0,0.0,0,0,0,0,0,0,-1515870811
-0.9164611625671386,-1.2602241333007813,9.691584172821045,-0.0007131212980924988,0.006915563513137817,-0.0019759256993025207,26.399999618530273,1615,0.0,0.0,0.0,-0.954638659954071,-1.1747558116912842,9.900487899780273,-0.03595269098877907,0.003994743339717388,-0.013582127168774605,34.93000030517578,0,0,0,0,0,0,0,0.0,0.0,0,0,0,0,0,0,-1515870811
-0.9149558197021485,-1.2559480728149415,9.695439251708985,-0.0005383913001731872,0.006911182613174744,-0.002519843058699646,26.399999618530273,1616,-27.299999237060547,30.600000381469727,-69.30000305175781,-0.9642089605331421,-1.1460449695587158,9.917236328125,-0.033822160214185715,0.0018642136128619313,-0.013049494475126266,35.02411651611328,0,0,0,0,0,0,0,0.0,0.0,0,0,0,0,0,0,-1515870811
-0.9250933227539062,-1.2688642936706542,9.712055781555176,-0.0013249426069172668,0.007274471072878571,-0.001884506037611084,26.399999618530273,1617,0.0,0.0,0.0,-0.9091796875,-1.208251953125,9.92919921875,-0.031957946717739105,0.0034621108788996935,-0.011185280978679657,34.93000030517578,0,0,0,0,0,0,0,0.0,0.0,0,0,0,0,0,0,-1515870811
-0.9211920372009277,-1.265116731262207,9.708794024658204,-0.001120338599675293,0.005527077883047943,-0.001695714549232788,26.399999618530273,1618,0.0,0.0,0.0,-0.954638659954071,-1.1962890625,9.92919921875,-0.03408847749233246,0.003994743339717388,-0.013848443515598774,35.02411651611328,0,0,0,0,0,0,0,0.0,0.0,0,0,0,0,0,0,-1515870811
-0.9249592636108398,-1.2647128715515137,9.710113381958008,0.00018521619463943482,0.006609113568608399,-0.0011607254373287965,26.399999618530273,1619,0.0,0.0,0.0,-0.9091796875,-1.2106444835662842,9.907666206359863,-0.03408847749233246,0.0026631623040884733,-0.009853700175881386,34.93000030517578,0,0,0,0,0,0,0,0.0,0.0,0,0,0,0,0,0,-1515870811
-0.9256802146911621,-1.2667609184265136,9.704342184448242,-0.0008738697003849793,0.0055911601963375855,-0.0016076038651730348,26.399999618530273,1620,-27.899999618530273,30.600000381469727,-68.0999984741211,-0.978564441204071,-1.2226073741912842,9.926806449890137,-0.03302321210503578,0.0005326324608176947,-0.017576871439814568,34.93000030517578,0,0,0,0,0,0,0,0.0,0.0,0,0,0,0,0,0,-1515870811
-0.9194383895874023,-1.2586737800598145,9.694786713409423,-0.0009978531640815736,0.005904674175609894,0.0003807255068212891,26.200000762939453,1621,0.0,0.0,0.0,-0.9402831792831421,-1.177148461341858,9.893310546875,-0.03542005643248558,0.0010652649216353893,-0.015446340665221214,35.02411651611328,0,0,0,0,0,0,0,0.0,0.0,0,0,0,0,0,0,-1515870811
-0.91674501953125,-1.2565806106567383,9.69476286239624,-0.001171231607756958,0.005712247472368622,-0.0011574164596971131,26.200000762939453,1622,0.0,0.0,0.0,-0.9498535394668579,-1.213037133216858,9.859814643859863,-0.03648532181978226,0.005326324608176947,-0.013315810821950436,34.93000030517578,0,0,0,0,0,0,0,0.0,0.0,0,0,0,0,0,0,-1515870811
-0.9165660995483398,-1.2595458374023436,9.697298509216308,-0.0012584900802737426,0.007681881453639069,-0.002612434511262665,26.299999237060547,1623,0.0,0.0,0.0,-0.954638659954071,-1.215429663658142,10.029687881469727,-0.036751639097929,0.007989486679434776,-0.013582127168774605,35.02411651611328,0,0,0,0,0,0,0,0.0,0.0,0,0,0,0,0,0,-1515870811
-0.9185505935668945,-1.2615819213867188,9.698463694763184,-0.0014529274701242066,0.006905450158967743,-0.0019692544808177187,26.5,1624,-27.450000762939453,30.450000762939453,-67.94999694824219,-0.930712878704071,-1.160400390625,9.943554878234863,-0.033289529383182526,0.002929478418081999,-0.013049494475126266,35.02411651611328,0,0,0,0,0,0,0,0.0,0.0,0,0,0,0,0,0,-1515870811
-0.9212194770812988,-1.267002643585205,9.700278614807129,-0.001886323645042572,0.0077188461293153385,-0.002241815700708771,26.5,1625,0.0,0.0,0.0,-0.9498535394668579,-1.153222680091858,9.962695121765137,-0.033289529383182526,0.002396845957264304,-0.010386332869529724,35.02411651611328,0,0,0,0,0,0,0,0.0,0.0,0,0,0,0,0,0,-1515870811
-0.9248153350830077,-1.271453175354004,9.704123487854003,-0.0006612895257330322,0.006380814085730286,-0.001516936546484375,26.5,1626,0.0,0.0,0.0,-0.95703125,-1.184326171875,9.840673446655273,-0.03408847749233246,0.0034621108788996935,-0.013848443515598774,34.83588409423828,0,0,0,0,0,0,0,0.0,0.0,0,0,0,0,0,0,-1515870811
-0.9235299598693847,-1.2785916564941406,9.712621925354004,-0.00038073882262664794,0.005968669936164703,-0.0037866688331280518,26.299999237060547,1627,0.0,0.0,0.0,-0.966601550579071,-1.1340820789337158,9.895703315734863,-0.033289529383182526,0.005858956836163998,-0.014114759862422943,35.02411651611328,0,0,0,0,0,0,0,0.0,0.0,0,0,0,0,0,0,-1515870811
-0.9312660995483398,-1.2660222473144531,9.714917678833007,-0.0009980795327726745,0.006331878501036377,-0.0021562816249859618,26.100000381469727,1628,-27.299999237060547,30.600000381469727,-67.94999694824219,-0.959423840045929,-1.2106444835662842,9.886133193969727,-0.035686373710632324,0.003195794764906168,-0.013315810821950436,34.93000030517578,0,0,0,0,0,0,0,0.0,0.0,0,0,0,0,0,0,-1515870811
-0.9299511909484863,-1.2667750122070311,9.71140365447998,-0.001519879339468689,0.005704331226082764,-0.0020617127753271487,26.100000381469727,1629,0.0,0.0,0.0,-0.95703125,-1.1938965320587158,9.97705078125,-0.03302321210503578,0.008255803026258945,-0.015446340665221214,34.93000030517578,0,0,0,0,0,0,0,0.0,0.0,0,0,0,0,0,0,-1515870811
-0.9325712882995605,-1.2663459182739258,9.689592276763916,-0.002611342615223236,0.006416600312632294,-0.0013318867994119262,26.299999237060547,1630,0.0,0.0,0.0,-0.959423840045929,-1.2345702648162842,9.972265243530273,-0.03488742560148239,0.006657905410975218,-0.011185280978679657,34.93000030517578,0,0,0,0,0,0,0,0.0,0.0,0,0,0,0,0,0,-1515870811
-0.9247063980102539,-1.2486247276306153,9.68522511138916,-0.001578761830765686,0.007842316934505615,-0.00043584628310440064,26.299999237060547,1631,0.0,0.0,0.0,-1.000097632408142,-1.1699707508087158,9.9052734375,-0.03781690448522568,0.006125273182988167,-0.011185280978679657,34.93000030517578,0,0,0,0,0,0,0,0.0,0.0,0,0,0,0,0,0,-1515870811
-0.9280868865966797,-1.2548200843811035,9.682910703277587,-0.0015914850827861023,0.008724355881478272,-7.758453992355347e-05,26.299999237060547,1632,-27.450000762939453,31.049999237060547,-69.0,-0.9378906488418579,-1.2058594226837158,9.907666206359863,-0.03728426992893219,0.003994743339717388,-0.015180024318397045,34.83588409423828,0,0,0,0,0,0,0,0.0,0.0,0,0,0,0,0,0,-1515870811
-0.9268653633117675,-1.2497361549377441,9.691046403503417,-0.0013952034538934326,0.00667033298374588,-0.002243000807385712,26.399999618530273,1633,0.0,0.0,0.0,-0.968994140625,-1.248925805091858,9.950732231140137,-0.03728426992893219,0.004527375567704439,-0.013315810821950436,34.83588409423828,0,0,0,0,0,0,0,0.0,0.0,0,0,0,0,0,0,-1515870811
-0.9365124252319336,-1.2696528350830079,9.697514402008057,-0.0033076859985635377,0.007761037258594971,-0.0024203939663768005,26.399999618530273,1634,0.0,0.0,0.0,-1.0048828125,-1.184326171875,9.948339462280273,-0.03222426399588585,0.006657905410975218,-0.013049494475126266,35.02411651611328,0,0,0,0,0,0,0,0.0,0.0,0,0,0,0,0,0,-1515870811
-0.9371151679992675,-1.2653143806457519,9.702860842132567,-0.0019105251212823487,0.0072326194966355895,-0.0014272945448083497,26.399999618530273,1635,0.0,0.0,0.0,-0.918749988079071,-1.201074242591858,9.943554878234863,-0.03408847749233246,0.003195794764906168,-0.013582127168774605,34.93000030517578,0,0,0,0,0,0,0,0.0,0.0,0,0,0,0,0,0,-1515870811
-0.9391748413085937,-1.2705927070617675,9.706696817779541,-0.0019099059363331605,0.007135347538488922,-0.0023324963352027894,26.399999618530273,1636,-27.450000762939453,31.049999237060547,-68.8499984741211,-0.9091796875,-1.155615210533142,9.965087890625,-0.034354791045188904,0.004527375567704439,-0.012250546365976334,35.02411651611328,0,0,0,0,0,0,0,0.0,0.0,0,0,0,0,0,0,-1515870811
-0.9436024192810059,-1.2772222793579102,9.707440460968018,-0.0019983694892349245,0.0072446636425827025,2.1837920788574217e-05,26.399999618530273,1637,0.0,0.0,0.0,-0.990527331829071,-1.2465331554412842,9.948339462280273,-0.035686373710632324,0.006391589529812336,-0.009587383829057217,34.93000030517578,0,0,0,0,0,0,0,0.0,0.0,0,0,0,0,0,0,-1515870811
-0.9370452224731445,-1.2653424560546875,9.694415901184081,0.0001221059351409912,0.006927268106048279,-0.0006160357612208557,26.399999618530273,1638,0.0,0.0,0.0,-1.033593773841858,-1.1819336414337158,9.972265243530273,-0.03621900454163551,0.002929478418081999,-0.013315810821950436,34.93000030517578,0,0,0,0,0,0,0,0.0,0.0,0,0,0,0,0,0,-1515870811
-0.9396049819946288,-1.2724637405395507,9.694616952514648,-0.0023237411931793213,0.008248954998555299,-0.0031476965971765137,26.399999618530273,1639,-27.75,30.450000762939453,-68.8499984741211,-0.966601550579071,-1.201074242591858,9.950732231140137,-0.035686373710632324,0.007190538104623556,-0.014647392556071281,35.02411651611328,0,0,0,0,0,0,0,0.0,0.0,0,0,0,0,0,0,-1515870811
-0.940678913116455,-1.2652923988342284,9.7005166015625,-0.001013898709539032,0.007806344286328583,-0.002607374505226288,26.399999618530273,1640,0.0,0.0,0.0,-0.9522460699081421,-1.1819336414337158,9.866991996765137,-0.03648532181978226,0.001597897382453084,-0.014381076209247112,34.93000030517578,0,0,0,0,0,0,0,0.0,0.0,0,0,0,0,0,0,-1515870811
-0.9416547859191894,-1.271021427154541,9.693709791564942,-0.0030207237351768494,0.007804400178746186,-0.002600390365315552,26.399999618530273,1641,0.0,0.0,0.0,-0.968994140625,-1.184326171875,9.948339462280273,-0.03488742560148239,0.004527375567704439,-0.013582127168774605,34.93000030517578,0,0,0,0,0,0,0,0.0,0.0,0,0,0,0,0,0,-1515870811
-0.943575764465332,-1.2779384452819824,9.695664789581299,-0.0021519073829255678,0.007515886624035187,-0.003961165804453583,26.399999618530273,1642,0.0,0.0,0.0,-0.959423840045929,-1.1508300304412842,9.914843559265137,-0.03302321210503578,0.003994743339717388,-0.011185280978679657,35.02411651611328,0,0,0,0,0,0,0,0.0,0.0,0,0,0,0,0,0,-1515870811
-0.9472964851379394,-1.2772133819580078,9.692472006225586,-0.0021648902931504822,0.007896205998793029,0.0007454653893092346,26.299999237060547,1643,-27.450000762939453,30.299999237060547,-69.1500015258789,-0.921142578125,-1.165185570716858,9.969873428344727,-0.03621900454163551,0.0034621108788996935,-0.017310554161667824,35.02411651611328,0,0,0,0,0,0,0,0.0,0.0,0,0,0,0,0,0,-1515870811
-0.9465204299926757,-1.2795661087036132,9.701752368164062,-0.0013628393889686585,0.007804486731481018,-0.002787264377722168,26.299999237060547,1644,0.0,0.0,0.0,-0.954638659954071,-1.189111351966858,10.003369331359863,-0.03648532181978226,0.007190538104623556,-0.011185280978679657,34.93000030517578,0,0,0,0,0,0,0,0.0,0.0,0,0,0,0,0,0,-1515870811
-0.9488250434875488,-1.2826267768859863,9.691458936309814,-0.0027595808183810424,0.007986294079948579,-0.0023302725957078554,26.299999237060547,1645,0.0,0.0,0.0,-1.0024902820587158,-1.1986815929412842,9.986620903015137,-0.03648532181978226,0.005858956836163998,-0.015712657943367958,34.93000030517578,0,0,0,0,0,0,0,0.0,0.0,0,0,0,0,0,0,-1515870811
-0.9462063293457031,-1.280026530456543,9.694730151367187,-0.003870258801268463,0.008560285185748749,-0.0031411319051345824,26.399999618530273,1646,0.0,0.0,0.0,-0.9091796875,-1.201074242591858,9.924413681030273,-0.03542005643248558,0.006657905410975218,-0.008788435719907284,34.93000030517578,0,0,0,0,0,0,0,0.0,0.0,0,0,0,0,0,0,-1515870811
-0.9481851409912109,-1.2844661834716797,9.694262589263916,-0.0025593776848101806,0.007673798759786224,-0.0020559137420933533,26.399999618530273,1647,-28.350000381469727,31.350000381469727,-68.69999694824219,-0.978564441204071,-1.1938965320587158,9.912450790405273,-0.03542005643248558,0.0050600082613527775,-0.010120016522705555,34.93000030517578,0,0,0,0,0,0,0,0.0,0.0,0,0,0,0,0,0,-1515870811
-0.9449482818603515,-1.2859227027893065,9.68952625656128,-0.0015271830587080383,0.006100716120006104,-0.0037763490839749147,26.399999618530273,1648,0.0,0.0,0.0,-0.923535168170929,-1.213037133216858,9.895703315734863,-0.03542005643248558,0.006924221757799387,-0.014647392556071281,34.93000030517578,0,0,0,0,0,0,0,0.0,0.0,0,0,0,0,0,0,-1515870811
-0.9430674911499023,-1.2900051139831543,9.687744944763184,-0.001361421255697937,0.007353027666593323,-0.003147896334256897,26.399999618530273,1649,0.0,0.0,0.0,-0.9737793207168579,-1.201074242591858,9.955517768859863,-0.03462110832333565,0.005326324608176947,-0.014114759862422943,35.02411651611328,0,0,0,0,0,0,0,0.0,0.0,0,0,0,0,0,0,-1515870811
-0.9453819740295409,-1.2915923278808594,9.682571106719971,-0.003453953462528229,0.0068121329950126645,-0.0032292825366104128,26.399999618530273,1650,0.0,0.0,0.0,-1.021630883216858,-1.2106444835662842,9.922021865844727,-0.035686373710632324,0.0034621108788996935,-0.010386332869529724,34.93000030517578,0,0,0,0,0,0,0,0.0,0.0,0,0,0,0,0,0,-1515870811
-0.9385337425231933,-1.2862952346801757,9.68555715637207,-0.0008358197865719605,0.006550157840381927,-0.0026941336350421144,26.399999618530273,1651,-27.899999618530273,30.299999237060547,-69.0,-1.0431640148162842,-1.2178223133087158,9.972265243530273,-0.03542005643248558,0.006657905410975218,-0.013049494475126266,35.02411651611328,0,0,0,0,0,0,0,0.0,0.0,0,0,0,0,0,0,-1515870811
-0.9475803047180176,-1.2917527053833007,9.694668953704834,-0.0023159314733363343,0.005215567932482147,-0.0012354337632948303,26.399999618530273,1652,0.0,0.0,0.0,-0.9642089605331421,-1.165185570716858,9.859814643859863,-0.03834953531622887,0.005326324608176947,-0.015180024318397045,34.93000030517578,0,0,0,0,0,0,0,0.0,0.0,0,0,0,0,0,0,-1515870811
-0.934790591430664,-1.2882764762878418,9.698490573883056,-0.003191778570817108,0.006465768923919983,-0.0017801034656947327,26.399999618530273,1653,0.0,0.0,0.0,-0.9857422113418579,-1.177148461341858,9.92919921875,-0.03542005643248558,0.0021305298432707787,-0.009321067482233047,34.93000030517578,0,0,0,0,0,0,0,0.0,0.0,0,0,0,0,0,0,-1515870811
-0.939326732635498,-1.2907283081054688,9.698338682556152,-0.0027530161263391115,0.005654476850819092,-0.0023221100070228576,26.399999618530273,1654,0.0,0.0,0.0,-0.983349621295929,-1.251318335533142,9.938769340515137,-0.03408847749233246,0.004527375567704439,-0.014381076209247112,35.02411651611328,0,0,0,0,0,0,0,0.0,0.0,0,0,0,0,0,0,-1515870811
-0.9357179397583008,-1.2920706192016602,9.6955877784729,-0.001622743935866089,0.006836654050581055,-0.0005190966982081604,26.399999618530273,1655,-28.5,30.899999618530273,-69.0,-1.009667992591858,-1.184326171875,9.984228134155273,-0.03648532181978226,0.006125273182988167,-0.012783179059624672,35.02411651611328,0,0,0,0,0,0,0,0.0,0.0,0,0,0,0,0,0,-1515870811
-0.9356387977600097,-1.296454906463623,9.686736211395264,-0.0004867126595753479,0.006295086930829773,-0.0010644721382920838,26.399999618530273,1656,0.0,0.0,0.0,-0.9402831792831421,-1.232177734375,9.933984756469727,-0.03408847749233246,0.003994743339717388,-0.011984230019152164,34.93000030517578,0,0,0,0,0,0,0,0.0,0.0,0,0,0,0,0,0,-1515870811
-0.9287310508728027,-1.2948908706665039,9.693918768310546,-0.0011795606440089417,0.004751558721043701,-0.003229948326878357,26.399999618530273,1657,0.0,0.0,0.0,-0.978564441204071,-1.232177734375,9.859814643859863,-0.033822160214185715,0.007989486679434776,-0.011185280978679657,34.93000030517578,0,0,0,0,0,0,0,0.0,0.0,0,0,0,0,0,0,-1515870811
-0.9268048385620117,-1.2940694686889649,9.692289497375487,-0.0007679291529496766,0.005992345438092804,-0.0007925767086689758,26.399999618530273,1658,0.0,0.0,0.0,-0.923535168170929,-1.2417480945587158,9.948339462280273,-0.033289529383182526,0.0021305298432707787,-0.015446340665221214,34.93000030517578,0,0,0,0,0,0,0,0.0,0.0,0,0,0,0,0,0,-1515870811
-0.929113564300537,-1.294878384399414,9.698709719085693,-0.0026058565034153746,0.006162534746384735,-0.000606128802033844,26.399999618530273,1659,-26.850000381469727,30.299999237060547,-69.0,-1.000097632408142,-1.184326171875,9.989013671875,-0.034354791045188904,0.006657905410975218,-0.015712657943367958,34.93000030517578,0,0,0,0,0,0,0,0.0,0.0,0,0,0,0,0,0,-1515870811
-0.9292200714111328,-1.293947671508789,9.702429766845702,-0.0025184781886503603,0.006329102155619049,-0.0021464412448257445,26.399999618530273,1660,0.0,0.0,0.0,-0.9761718511581421,-1.2178223133087158,9.864599227905273,-0.03408847749233246,0.004527375567704439,-0.014647392556071281,34.93000030517578,0,0,0,0,0,0,0,0.0,0.0,0,0,0,0,0,0,-1515870811
-0.9242469482421874,-1.2954863235473633,9.702021533203125,-0.0020850620400239563,0.007317580992727966,-0.00197031308734375,26.399999618530273,1661,0.0,0.0,0.0,-0.942675769329071,-1.208251953125,9.986620903015137,-0.038882169872522354,0.0026631623040884733,-0.010918965563178062,34.93000030517578,0,0,0,0,0,0,0,0.0,0.0,0,0,0,0,0,0,-1515870811
-0.9235846153259277,-1.293037968444824,9.69852855606079,-0.0019039537713377382,0.00498517121026001,-0.0020533038442430117,26.399999618530273,1662,0.0,0.0,0.0,-0.995312511920929,-1.227392554283142,9.998583793640137,-0.034354791045188904,0.0021305298432707787,-0.017310554161667824,35.02411651611328,0,0,0,0,0,0,0,0.0,0.0,0,0,0,0,0,0,-1515870811
-0.9292190620422363,-1.294491310119629,9.69315598449707,-0.0017313875917892457,0.005785684138922882,-0.0028717065574055483,26.399999618530273,1663,-27.600000381469727,30.450000762939453,-69.1500015258789,-0.935498058795929,-1.1962890625,9.984228134155273,-0.037550587207078934,0.005858956836163998,-0.017576871439814568,34.93000030517578,0,0,0,0,0,0,0,0.0,0.0,0,0,0,0,0,0,-1515870811
-0.9198959327697753,-1.2959276420593262,9.694015032196045,-0.000509615844792633,0.005782315240167084,-0.003419265789568329,26.399999618530273,1664,0.0,0.0,0.0,-0.8900390863418579,-1.2417480945587158,9.943554878234863,-0.03408847749233246,0.0021305298432707787,-0.012516862712800503,34.93000030517578,0,0,0,0,0,0,0,0.0,0.0,0,0,0,0,0,0,-1515870811
-0.9175593559265136,-1.2919479621887207,9.694721515655518,-0.0005295496054148864,0.005489687101600189,-0.0019711053777626037,26.399999618530273,1665,0.0,0.0,0.0,-0.9881347417831421,-1.2058594226837158,9.926806449890137,-0.03648532181978226,0.0026631623040884733,-0.010918965563178062,34.93000030517578,0,0,0,0,0,0,0,0.0,0.0,0,0,0,0,0,0,-1515870811
-0.9192159172058105,-1.2893855857849121,9.703329525756835,-0.002803469712843933,0.005484627095563813,-0.0012392021362113953,26.299999237060547,1666,0.0,0.0,0.0,-0.9881347417831421,-1.1627929210662842,9.933984756469727,-0.031957946717739105,0.0013315811520442367,-0.011451597325503826,35.02411651611328,0,0,0,0,0,0,0,0.0,0.0,0,0,0,0,0,0,-1515870811
-0.9247892784118652,-1.2971451652526855,9.70582229309082,-0.0022801319306289675,0.005488928100694733,-0.000788269045635376,26.299999237060547,1667,-28.049999237060547,30.75,-68.4000015258789,-0.897216796875,-1.2178223133087158,9.898096084594727,-0.035686373710632324,0.005858956836163998,-0.015978973358869553,34.83588409423828,0,0,0,0,0,0,0,0.0,0.0,0,0,0,0,0,0,-1515870811
-0.9187733276367187,-1.288482836151123,9.70644260635376,-0.0004047605354940796,0.0062872705530841065,-0.0008840562914845276,26.399999618530273,1668,0.0,0.0,0.0,-0.9642089605331421,-1.2417480945587158,9.974658012390137,-0.03488742560148239,0.003994743339717388,-0.009054751135408878,34.83588409423828,0,0,0,0,0,0,0,0.0,0.0,0,0,0,0,0,0,-1515870811
-0.9190904190063476,-1.293442650604248,9.705455144500732,-0.001769024715636139,0.0057957175982608035,-0.0015087406682859803,26.399999618530273,1669,0.0,0.0,0.0,-0.990527331829071,-1.208251953125,9.900487899780273,-0.03408847749233246,0.006924221757799387,-0.010386332869529724,34.93000030517578,0,0,0,0,0,0,0,0.0,0.0,0,0,0,0,0,0,-1515870811
-0.9238411071777344,-1.286952333831787,9.693413261413573,-2.3888554813842772e-05,0.005711515103073883,-0.0010617357402908326,26.399999618530273,1670,0.0,0.0,0.0,-0.8924316167831421,-1.1962890625,9.957910537719727,-0.03542005643248558,0.004793691914528608,-0.016245288774371147,34.93000030517578,0,0,0,0,0,0,0,0.0,0.0,0,0,0,0,0,0,-1515870811
-0.9203718688964844,-1.2817064567565917,9.696853227996826,-0.0024671590747972105,0.0057973154949038696,-0.0012346547886813355,26.399999618530273,1671,-27.600000381469727,30.600000381469727,-68.4000015258789,-0.959423840045929,-1.2106444835662842,9.828710556030273,-0.03222426399588585,0.003195794764906168,-0.015180024318397045,34.93000030517578,0,0,0,0,0,0,0,0.0,0.0,0,0,0,0,0,0,-1515870811
-0.9263444541931152,-1.275607999420166,9.700827449798584,-0.0017706359280845643,0.006504857470550995,-0.0025073262016622926,26.399999618530273,1672,0.0,0.0,0.0,-0.9522460699081421,-1.239355444908142,9.941162109375,-0.03408847749233246,0.003195794764906168,-0.017310554161667824,34.93000030517578,0,0,0,0,0,0,0,0.0,0.0,0,0,0,0,0,0,-1515870811
-0.9214149581909179,-1.2715978515625,9.699442707824707,-0.0016814133742773438,0.005619462940627899,-0.0011462112094876098,26.399999618530273,1673,0.0,0.0,0.0,-0.9522460699081421,-1.2584960460662842,9.878954887390137,-0.03728426992893219,0.004793691914528608,-0.014114759862422943,34.93000030517578,0,0,0,0,0,0,0,0.0,0.0,0,0,0,0,0,0,-1515870811
-0.9201433029174805,-1.2772070640563964,9.70727791519165,-0.000806485067366333,0.006701218994275818,-0.0016959009705078125,26.5,1674,0.0,0.0,0.0,-0.906787097454071,-1.227392554283142,9.955517768859863,-0.03648532181978226,-0.001597897382453084,-0.010918965563178062,35.02411651611328,0,0,0,0,0,0,0,0.0,0.0,0,0,0,0,0,0,-1515870811
-0.9261909553527832,-1.2715119804382324,9.705508865356444,-0.00043179827827529907,0.005118096237255097,-0.0024141754852742003,26.5,1675,-27.299999237060547,30.899999618530273,-68.4000015258789,-0.954638659954071,-1.2465331554412842,9.838281631469727,-0.03595269098877907,0.007456854451447725,-0.014114759862422943,34.83588409423828,0,0,0,0,0,0,0,0.0,0.0,0,0,0,0,0,0,-1515870811
-0.9208274681091309,-1.269988768005371,9.700750401306152,0.00026213494429504393,0.006385734275810394,-0.0010627211098873902,26.5,1676,0.0,0.0,0.0,-0.9378906488418579,-1.227392554283142,9.864599227905273,-0.03169162943959236,0.0055926404893398285,-0.015978973358869553,34.93000030517578,0,0,0,0,0,0,0,0.0,0.0,0,0,0,0,0,0,-1515870811
-0.9254682846069335,-1.2591557723999023,9.700322615814208,-0.0008725780672651672,0.006646870534703522,-0.0018746856311589052,26.5,1677,0.0,0.0,0.0,-0.9857422113418579,-1.179540991783142,9.917236328125,-0.03408847749233246,0.0013315811520442367,-0.01491370890289545,34.93000030517578,0,0,0,0,0,0,0,0.0,0.0,0,0,0,0,0,0,-1515870811
-0.9321882888793945,-1.25285252532959,9.698606800842285,-0.0022199045429907227,0.0057637064021780395,-0.0021423200030671694,26.399999618530273,1678,0.0,0.0,0.0,-0.923535168170929,-1.22021484375,9.984228134155273,-0.03462110832333565,0.004261059686541557,-0.014647392556071281,34.93000030517578,0,0,0,0,0,0,0,0.0,0.0,0,0,0,0,0,0,-1515870811
-0.9266069274902343,-1.246269309234619,9.700863525390625,-0.0013622668093382264,0.00745484697227005,-0.0016993830536091614,26.399999618530273,1679,-28.200000762939453,31.049999237060547,-68.8499984741211,-0.9498535394668579,-1.1747558116912842,9.890917778015137,-0.03408847749233246,0.0034621108788996935,-0.012783179059624672,35.02411651611328,0,0,0,0,0,0,0,0.0,0.0,0,0,0,0,0,0,-1515870811
-0.9279653884887695,-1.2431475929260254,9.698157183074951,-0.000943318283234253,0.006517400959199066,-0.0023332353624002074,26.399999618530273,1680,0.0,0.0,0.0,-0.992919921875,-1.17236328125,9.919629096984863,-0.03169162943959236,0.0050600082613527775,-0.012783179059624672,34.93000030517578,0,0,0,0,0,0,0,0.0,0.0,0,0,0,0,0,0,-1515870811
-0.9330886833190918,-1.2443788360595702,9.705366880798339,-0.0026588467508410645,0.0076581260568788145,-0.004237914845130005,26.299999237060547,1681,0.0,0.0,0.0,-1.0024902820587158,-1.1938965320587158,9.969873428344727,-0.03355584293603897,0.001597897382453084,-0.014381076209247112,35.02411651611328,0,0,0,0,0,0,0,0.0,0.0,0,0,0,0,0,0,-1515870811
-0.9330824401855469,-1.2521219665527343,9.70656795501709,-0.000998625480792389,0.0064276324573721315,-0.0014321881032777406,26.299999237060547,1682,0.0,0.0,0.0,-0.921142578125,-1.1508300304412842,9.955517768859863,-0.03275689482688904,0.0037284272257238626,-0.01491370890289545,34.83588409423828,0,0,0,0,0,0,0,0.0,0.0,0,0,0,0,0,0,-1515870811
-0.9322849639892578,-1.251459371948242,9.699854792022705,-0.0007375158535099793,0.006694667618039245,-0.0017056947453492736,26.299999237060547,1683,-27.450000762939453,31.350000381469727,-69.44999694824219,-0.9737793207168579,-1.165185570716858,9.917236328125,-0.035153742879629135,0.006125273182988167,-0.012250546365976334,34.93000030517578,0,0,0,0,0,0,0,0.0,0.0,0,0,0,0,0,0,-1515870811
-0.9318932540893554,-1.248189278411865,9.705069602966308,-0.00011474229477752686,0.007794739561958313,-0.002072565156694641,26.399999618530273,1684,0.0,0.0,0.0,-0.921142578125,-1.165185570716858,9.874170303344727,-0.03462110832333565,0.004261059686541557,-0.008788435719907284,34.93000030517578,0,0,0,0,0,0,0,0.0,0.0,0,0,0,0,0,0,-1515870811
-0.9453636932373046,-1.2477995124816894,9.71086794128418,-0.0016757142095837401,0.008070689654313202,-0.00315384184134964,26.399999618530273,1685,0.0,0.0,0.0,-1.000097632408142,-1.17236328125,9.962695121765137,-0.036751639097929,0.0018642136128619313,-0.012516862712800503,35.02411651611328,0,0,0,0,0,0,0,0.0,0.0,0,0,0,0,0,0,-1515870811
-0.9438529296875,-1.246613279724121,9.710039324188232,-0.002110089096195984,0.007186300467694702,-0.001609800973057251,26.399999618530273,1686,-27.600000381469727,30.149999618530273,-69.0,-0.930712878704071,-1.143652319908142,9.967480659484863,-0.03781690448522568,0.003195794764906168,-0.01890845224261284,34.93000030517578,0,0,0,0,0,0,0,0.0,0.0,0,0,0,0,0,0,-1515870811
-0.9487484809875488,-1.2515714492797851,9.704170741271973,-0.0035180158021098328,0.007799020593381195,-0.0011552060360075379,26.399999618530273,1687,0.0,0.0,0.0,-0.9378906488418579,-1.131689429283142,10.005762100219727,-0.03302321210503578,0.0037284272257238626,-0.014647392556071281,34.83588409423828,0,0,0,0,0,0,0,0.0,0.0,0,0,0,0,0,0,-1515870811
-0.9515371429443359,-1.2527135688781739,9.702332456207275,-0.002834928303004303,0.007859314560046234,-0.0016119381598173523,26.299999237060547,1688,0.0,0.0,0.0,-0.897216796875,-1.153222680091858,10.015332221984863,-0.03462110832333565,0.003994743339717388,-0.011451597325503826,34.93000030517578,0,0,0,0,0,0,0,0.0,0.0,0,0,0,0,0,0,-1515870811
-0.9509143997192383,-1.2619666404724121,9.69945209121704,-0.0016108995269993591,0.007218291690069428,-0.0033344707410429384,26.299999237060547,1689,0.0,0.0,0.0,-0.954638659954071,-1.1819336414337158,9.931591987609863,-0.03595269098877907,0.005326324608176947,-0.017576871439814568,35.02411651611328,0,0,0,0,0,0,0,0.0,0.0,0,0,0,0,0,0,-1515870811
-0.949185089111328,-1.2588289611816406,9.698156846618652,-0.0004656870029136658,0.006709408214571533,-0.0020679911775538635,26.399999618530273,1690,-27.600000381469727,31.5,-68.4000015258789,-0.968994140625,-1.1627929210662842,9.88134765625,-0.03621900454163551,0.0026631623040884733,-0.012783179059624672,34.93000030517578,0,0,0,0,0,0,0,0.0,0.0,0,0,0,0,0,0,-1515870811
-0.9454037689208984,-1.2579834091186524,9.688967253112793,-0.000798136057406311,0.006193447388525391,-0.002516420896722412,26.399999618530273,1691,0.0,0.0,0.0,-0.9618164300918579,-1.167578101158142,10.015332221984863,-0.03542005643248558,0.007456854451447725,-0.016245288774371147,34.93000030517578,0,0,0,0,0,0,0,0.0,0.0,0,0,0,0,0,0,-1515870811
-0.9472413063049316,-1.2643392929077149,9.687536902618408,-0.004023383904992981,0.005111811177125702,-0.0027730763871122743,26.399999618530273,1692,0.0,0.0,0.0,-0.954638659954071,-1.191503882408142,9.859814643859863,-0.035686373710632324,0.0026631623040884733,-0.01651160605251789,35.02411651611328,0,0,0,0,0,0,0,0.0,0.0,0,0,0,0,0,0,-1515870811
-0.9400109725952148,-1.2669979705810546,9.683688179016112,-0.002673740479134979,0.006720340490771179,-0.0025076857284069822,26.399999618530273,1693,0.0,0.0,0.0,-0.95703125,-1.2058594226837158,9.910058975219727,-0.037550587207078934,0.0021305298432707787,-0.015978973358869553,34.93000030517578,0,0,0,0,0,0,0,0.0,0.0,0,0,0,0,0,0,-1515870811
-0.9416971794128418,-1.2755944290161132,9.686260013580322,-0.00216981714113327,0.006505782919023438,-0.002510488705435028,26.299999237060547,1694,-27.0,30.600000381469727,-68.55000305175781,-1.016845703125,-1.189111351966858,9.943554878234863,-0.037550587207078934,0.005326324608176947,-0.010652649216353893,35.02411651611328,0,0,0,0,0,0,0,0.0,0.0,0,0,0,0,0,0,-1515870811
-0.9377385467529297,-1.2766244338989257,9.689215071868896,-0.0007699464974615478,0.005076710714199677,-0.001967010767614746,26.299999237060547,1695,0.0,0.0,0.0,-0.954638659954071,-1.167578101158142,9.900487899780273,-0.033822160214185715,0.0026631623040884733,-0.013582127168774605,35.02411651611328,0,0,0,0,0,0,0,0.0,0.0,0,0,0,0,0,0,-1515870811
-0.9435269783020019,-1.2854189155578613,9.691642678833007,-0.0005167864059783936,0.007957518624568024,-0.0007102517420376587,26.299999237060547,1696,0.0,0.0,0.0,-0.992919921875,-1.2106444835662842,9.9052734375,-0.035153742879629135,0.000798948691226542,-0.015180024318397045,35.02411651611328,0,0,0,0,0,0,0,0.0,0.0,0,0,0,0,0,0,-1515870811
-0.9397473403930664,-1.29307748336792,9.691550901031494,-0.0028464797641531373,0.007809872974748688,-0.001967130609862976,26.399999618530273,1697,0.0,0.0,0.0,-0.947460949420929,-1.1938965320587158,9.845458984375,-0.032490577548742294,0.006125273182988167,-0.015978973358869553,34.93000030517578,0,0,0,0,0,0,0,0.0,0.0,0,0,0,0,0,0,-1515870811
-0.9361260986328125,-1.293484408569336,9.691328765106201,-0.0029206554579048155,0.00691756754184433,-0.003502249888564911,26.399999618530273,1698,-27.600000381469727,31.350000381469727,-68.55000305175781,-0.9737793207168579,-1.203466773033142,9.931591987609863,-0.03222426399588585,0.0037284272257238626,-0.009054751135408878,35.02411651611328,0,0,0,0,0,0,0,0.0,0.0,0,0,0,0,0,0,-1515870811
-0.9384933303833007,-1.2948408882141114,9.697859606170654,-0.0026453711558178713,0.007225282487882843,-0.0020540428714404296,26.399999618530273,1699,0.0,0.0,0.0,-0.9977051019668579,-1.203466773033142,9.912450790405273,-0.03462110832333565,0.0037284272257238626,-0.011717913672327995,34.93000030517578,0,0,0,0,0,0,0,0.0,0.0,0,0,0,0,0,0,-1515870811
-0.9433914611816406,-1.302531120300293,9.70525880355835,-0.0034501651159036255,0.007013907393615875,-0.0015995611187362671,26.399999618530273,1700,0.0,0.0,0.0,-0.98095703125,-1.2297852039337158,9.902880668640137,-0.034354791045188904,0.0026631623040884733,-0.010652649216353893,34.93000030517578,0,0,0,0,0,0,0,0.0,0.0,0,0,0,0,0,0,-1515870811
-0.9344678924560547,-1.2987244537353515,9.697653956604004,-0.003453593935783539,0.006720167385301514,-0.0035006253603111267,26.299999237060547,1701,0.0,0.0,0.0,-1.024023413658142,-1.184326171875,9.996191024780273,-0.03275689482688904,0.003994743339717388,-0.01491370890289545,35.02411651611328,0,0,0,0,0,0,0,0.0,0.0,0,0,0,0,0,0,-1515870811
-0.9322854873657226,-1.3080313209533692,9.691530601501464,-0.0018866765138845826,0.007979562940339661,-0.0032388299690527343,26.299999237060547,1702,-27.299999237060547,30.75,-68.8499984741211,-0.918749988079071,-1.256103515625,9.945947647094727,-0.035153742879629135,0.001597897382453084,-0.013582127168774605,34.93000030517578,0,0,0,0,0,0,0,0.0,0.0,0,0,0,0,0,0,-1515870811
-0.9284255485534668,-1.3096890037536622,9.691596098327636,-0.0011681290251083375,0.005778027550841522,-0.0016022375956134033,26.399999618530273,1703,0.0,0.0,0.0,-0.9881347417831421,-1.215429663658142,9.852636337280273,-0.03861585259437561,0.005326324608176947,-0.014647392556071281,34.93000030517578,0,0,0,0,0,0,0,0.0,0.0,0,0,0,0,0,0,-1515870811
-0.9316310424804687,-1.3202175811767578,9.691240800476074,-0.0036030838246450805,0.0066748670154705815,-0.003407101801372986,26.399999618530273,1704,0.0,0.0,0.0,-0.9522460699081421,-1.225000023841858,9.835888862609863,-0.03089268133044243,0.003994743339717388,-0.008788435719907284,34.93000030517578,0,0,0,0,0,0,0,0.0,0.0,0,0,0,0,0,0,-1515870811
-0.9300421463012695,-1.3111246627807618,9.694786601257324,-0.0019038539027975464,0.006479404308607483,-0.003408579855767822,26.399999618530273,1705,0.0,0.0,0.0,-0.995312511920929,-1.1938965320587158,9.898096084594727,-0.034354791045188904,0.005326324608176947,-0.016245288774371147,34.93000030517578,0,0,0,0,0,0,0,0.0,0.0,0,0,0,0,0,0,-1515870811
-0.9274003288269043,-1.31570357131958,9.694927613830567,-0.0024209532302018736,0.007841411459741212,-0.0035011846241362,26.399999618530273,1706,-27.75,29.850000381469727,-68.4000015258789,-0.923535168170929,-1.213037133216858,9.960302352905273,-0.03595269098877907,0.0050600082613527775,-0.013315810821950436,34.93000030517578,0,0,0,0,0,0,0,0.0,0.0,0,0,0,0,0,0,-1515870811
-0.9375577575683594,-1.329787183380127,9.706129328155518,-0.0027653332462960816,0.005886957496579895,-0.0012292552296083068,26.399999618530273,1707,0.0,0.0,0.0,-0.959423840045929,-1.215429663658142,9.941162109375,-0.033822160214185715,0.005858956836163998,-0.01704423874616623,34.93000030517578,0,0,0,0,0,0,0,0.0,0.0,0,0,0,0,0,0,-1515870811
-0.9318474586486816,-1.3215347702026368,9.709795505523681,-0.0011305185328721618,0.007005585015266571,-0.0027801670534658815,26.399999618530273,1708,0.0,0.0,0.0,-0.9259277582168579,-1.203466773033142,9.857421875,-0.03302321210503578,0.0021305298432707787,-0.012250546365976334,34.93000030517578,0,0,0,0,0,0,0,0.0,0.0,0,0,0,0,0,0,-1515870811
-0.9304436882019043,-1.3299914497375487,9.696557968902587,-0.001426142727644806,0.006402958270042114,-0.0029613951644003296,26.399999618530273,1709,0.0,0.0,0.0,-0.966601550579071,-1.2537109851837158,9.922021865844727,-0.03542005643248558,0.005858956836163998,-0.016777921468019485,35.02411651611328,0,0,0,0,0,0,0,0.0,0.0,0,0,0,0,0,0,-1515870811
-0.9314943290710449,-1.3197782814025878,9.687357048034668,-0.0007468369172612,0.005923203118766785,-0.0026016886563380434,26.299999237060547,1710,-27.899999618530273,31.049999237060547,-68.25,-0.9043945074081421,-1.22021484375,9.912450790405273,-0.03302321210503578,0.004527375567704439,-0.011451597325503826,34.93000030517578,0,0,0,0,0,0,0,0.0,0.0,0,0,0,0,0,0,-1515870811
-0.9398563522338866,-1.3238397575378418,9.681262441253661,-0.0018811238230499268,0.006006486823383942,-0.0032319190660714723,26.299999237060547,1711,0.0,0.0,0.0,-0.935498058795929,-1.2776367664337158,9.926806449890137,-0.03488742560148239,0.0026631623040884733,-0.013315810821950436,35.02411651611328,0,0,0,0,0,0,0,0.0,0.0,0,0,0,0,0,0,-1515870811
-0.9408054206848144,-1.3195732299804688,9.681795836639404,-0.0018833542204475403,0.006390241675924378,-0.0002449642132847595,26.299999237060547,1712,0.0,0.0,0.0,-1.016845703125,-1.272851586341858,9.914843559265137,-0.037017956376075745,0.0018642136128619313,-0.016777921468019485,35.02411651611328,0,0,0,0,0,0,0,0.0,0.0,0,0,0,0,0,0,-1515870811
-0.9315780693054199,-1.3139117919921874,9.691397701263428,-0.001420902958236084,0.006236896861411438,-0.0024170450413290405,26.399999618530273,1713,0.0,0.0,0.0,-0.9259277582168579,-1.244140625,9.924413681030273,-0.035686373710632324,0.006125273182988167,-0.015712657943367958,34.93000030517578,0,0,0,0,0,0,0,0.0,0.0,0,0,0,0,0,0,-1515870811
-0.9387550186157226,-1.3248436309814453,9.696311795043945,-0.00090017507387146,0.007055186390228424,-0.0011539676661091614,26.399999618530273,1714,-28.200000762939453,30.600000381469727,-69.0,-0.992919921875,-1.208251953125,9.945947647094727,-0.033289529383182526,0.0055926404893398285,-0.011185280978679657,34.93000030517578,0,0,0,0,0,0,0,0.0,0.0,0,0,0,0,0,0,-1515870811
-0.9379907020568847,-1.317421591949463,9.690709311676025,-0.0010721886474975586,0.006158926163132477,-0.0010596651325575257,26.399999618530273,1715,0.0,0.0,0.0,-0.98095703125,-1.1938965320587158,9.917236328125,-0.03595269098877907,0.002396845957264304,-0.012516862712800503,34.93000030517578,0,0,0,0,0,0,0,0.0,0.0,0,0,0,0,0,0,-1515870811
-0.937295994567871,-1.3087160469055175,9.691864739990233,-0.0018790598732192994,0.006919678096993714,-0.002329127436446991,26.399999618530273,1716,0.0,0.0,0.0,-1.0192382335662842,-1.248925805091858,9.871777534484863,-0.03595269098877907,0.0037284272257238626,-0.013848443515598774,34.93000030517578,0,0,0,0,0,0,0,0.0,0.0,0,0,0,0,0,0,-1515870811
-0.9394305854797363,-1.3019594436645507,9.687398357391357,-0.0019815116796505737,0.006812392653217163,-0.0012431103250842286,26.299999237060547,1717,0.0,0.0,0.0,-0.959423840045929,-1.22021484375,9.914843559265137,-0.03781690448522568,0.0037284272257238626,-0.016777921468019485,34.93000030517578,0,0,0,0,0,0,0,0.0,0.0,0,0,0,0,0,0,-1515870811
-0.9371968521118164,-1.2994869010925292,9.684256790161132,-0.0007527424769378662,0.005844733077786865,-0.00015686018712768554,26.299999237060547,1718,-27.75,30.75,-69.30000305175781,-0.9522460699081421,-1.256103515625,9.919629096984863,-0.037017956376075745,0.004527375567704439,-0.015180024318397045,34.93000030517578,0,0,0,0,0,0,0,0.0,0.0,0,0,0,0,0,0,-1515870811
-0.9373245559692382,-1.2928097389221191,9.691683876037597,-0.002627261660529785,0.00627251664074646,-0.0013248960015985107,26.399999618530273,1719,0.0,0.0,0.0,-0.978564441204071,-1.1962890625,9.866991996765137,-0.03275689482688904,0.0050600082613527775,-0.009853700175881386,34.93000030517578,0,0,0,0,0,0,0,0.0,0.0,0,0,0,0,0,0,-1515870811
-0.9364176567077637,-1.283026300048828,9.69004398803711,-0.001565306209450531,0.00459404605945343,-0.0005973070809835815,26.399999618530273,1720,0.0,0.0,0.0,-0.9737793207168579,-1.225000023841858,9.919629096984863,-0.03222426399588585,0.003195794764906168,-0.012783179059624672,35.02411651611328,0,0,0,0,0,0,0,0.0,0.0,0,0,0,0,0,0,-1515870811
-0.9357445571899414,-1.2818774139404296,9.691772588348389,-0.001136510645283661,0.007198371245252533,-0.00024572321419021607,26.399999618530273,1721,0.0,0.0,0.0,-0.966601550579071,-1.251318335533142,9.895703315734863,-0.03462110832333565,0.003195794764906168,-0.014647392556071281,34.93000030517578,0,0,0,0,0,0,0,0.0,0.0,0,0,0,0,0,0,-1515870811
-0.9421930038452148,-1.280827894592285,9.693934619140625,0.0006104298071647644,0.006654367333120575,-0.0011554324046986388,26.399999618530273,1722,-28.049999237060547,30.75,-68.69999694824219,-1.0312011241912842,-1.1938965320587158,9.871777534484863,-0.031158998608589172,0.000798948691226542,-0.008788435719907284,35.02411651611328,0,0,0,0,0,0,0,0.0,0.0,0,0,0,0,0,0,-1515870811
-0.9386878768920898,-1.2746101821899414,9.698152958679199,-0.0013131581191746522,0.008340601028937836,-0.0030563102249984743,26.399999618530273,1723,0.0,0.0,0.0,-0.935498058795929,-1.1938965320587158,9.910058975219727,-0.033822160214185715,0.006924221757799387,-0.011185280978679657,35.02411651611328,0,0,0,0,0,0,0,0.0,0.0,0,0,0,0,0,0,-1515870811
-0.9409348815917968,-1.2726345108032227,9.701379611968994,-0.002443343756912842,0.006734275481079254,-0.001960086548828125,26.399999618530273,1724,0.0,0.0,0.0,-0.971386730670929,-1.1508300304412842,9.898096084594727,-0.03542005643248558,0.002929478418081999,-0.013315810821950436,34.93000030517578,0,0,0,0,0,0,0,0.0,0.0,0,0,0,0,0,0,-1515870811
-0.9400506744384766,-1.2632324264526367,9.703694094848633,-0.0011390406483018493,0.0063736302087391665,-0.001239395215389099,26.399999618530273,1725,0.0,0.0,0.0,-1.016845703125,-1.2106444835662842,9.823925971984863,-0.035686373710632324,0.0018642136128619313,-0.011185280978679657,34.93000030517578,0,0,0,0,0,0,0,0.0,0.0,0,0,0,0,0,0,-1515870811
-0.9403016334533691,-1.274051178741455,9.704467533111572,-0.002116081208607483,0.005163789423344116,-0.001958089178024292,26.299999237060547,1726,-28.049999237060547,31.5,-68.69999694824219,-0.9522460699081421,-1.179540991783142,9.869384765625,-0.032490577548742294,0.0037284272257238626,-0.017310554161667824,34.93000030517578,0,0,0,0,0,0,0,0.0,0.0,0,0,0,0,0,0,-1515870811
-0.9412776557922363,-1.2640653427124022,9.699211824035645,-0.0015970177999127197,0.006523219966140899,-0.00033468610979293825,26.299999237060547,1727,0.0,0.0,0.0,-0.9498535394668579,-1.1819336414337158,9.888525009155273,-0.03408847749233246,0.0026631623040884733,-0.011185280978679657,35.02411651611328,0,0,0,0,0,0,0,0.0,0.0,0,0,0,0,0,0,-1515870811
-0.9305881401062012,-1.2594584335327148,9.69591574859619,-0.0003855658020692444,0.0086491415549086,-0.0026106834828579714,26.299999237060547,1728,0.0,0.0,0.0,-0.995312511920929,-1.232177734375,9.910058975219727,-0.035686373710632324,0.0050600082613527775,-0.014647392556071281,34.93000030517578,0,0,0,0,0,0,0,0.0,0.0,0,0,0,0,0,0,-1515870811
-0.9425941719055175,-1.2662566078186035,9.699008828735352,-0.0007832556449177551,0.006056940409888764,-0.000613006415501709,26.200000762939453,1729,0.0,0.0,0.0,-0.978564441204071,-1.203466773033142,9.991406440734863,-0.031425315886735916,0.003195794764906168,-0.013848443515598774,34.83588409423828,0,0,0,0,0,0,0,0.0,0.0,0,0,0,0,0,0,-1515870811
-0.9370516525268554,-1.2560585052490234,9.695738585662841,-4.118578597503662e-05,0.007152871138341217,-0.0006230731643530273,26.200000762939453,1730,-27.600000381469727,30.600000381469727,-68.69999694824219,-0.9498535394668579,-1.1747558116912842,9.945947647094727,-0.033289529383182526,0.006125273182988167,-0.014114759862422943,34.93000030517578,0,0,0,0,0,0,0,0.0,0.0,0,0,0,0,0,0,-1515870811
-0.9379911506652832,-1.2619793884277344,9.691277885437012,-0.0013483451348355103,0.0064417006057337954,0.0002895055822102356,26.200000762939453,1731,0.0,0.0,0.0,-0.9091796875,-1.2058594226837158,9.926806449890137,-0.033822160214185715,0.005326324608176947,-0.016245288774371147,34.93000030517578,0,0,0,0,0,0,0,0.0,0.0,0,0,0,0,0,0,-1515870811
-0.9339207023620605,-1.254950106048584,9.69026388092041,-0.002018609513380432,0.005747620909304504,-0.002057844533870392,26.299999237060547,1732,0.0,0.0,0.0,-0.9737793207168579,-1.189111351966858,9.933984756469727,-0.036751639097929,0.0026631623040884733,-0.012783179059624672,34.93000030517578,0,0,0,0,0,0,0,0.0,0.0,0,0,0,0,0,0,-1515870811
-0.9454868736267089,-1.2622385345458984,9.686356651306152,-0.0008016980353398132,0.007534182540598297,-0.0030644461820727538,26.299999237060547,1733,0.0,0.0,0.0,-0.9091796875,-1.1867187023162842,9.965087890625,-0.03462110832333565,0.004261059686541557,-0.013049494475126266,34.93000030517578,0,0,0,0,0,0,0,0.0,0.0,0,0,0,0,0,0,-1515870811
-0.9393555183410645,-1.263726119995117,9.679498064422607,-0.0013227854464491272,0.006469577244252625,-0.001610027341748352,26.299999237060547,1734,-27.450000762939453,31.350000381469727,-69.1500015258789,-0.995312511920929,-1.1867187023162842,9.926806449890137,-0.03462110832333565,0.004793691914528608,-0.009321067482233047,34.93000030517578,0,0,0,0,0,0,0,0.0,0.0,0,0,0,0,0,0,-1515870811
-0.9339819747924805,-1.2585378143310546,9.672558129882812,-0.0010413292685783387,0.006936522590772705,-0.0036935846957667543,26.399999618530273,1735,0.0,0.0,0.0,-0.9163573980331421,-1.1867187023162842,9.850244522094727,-0.035153742879629135,0.001597897382453084,-0.011984230019152164,35.02411651611328,0,0,0,0,0,0,0,0.0,0.0,0,0,0,0,0,0,-1515870811
-0.9397130218505859,-1.2661948867797852,9.672317040252684,0.0007980228730607605,0.006060981756815185,-0.002428689713115387,26.399999618530273,1736,0.0,0.0,0.0,-0.945068359375,-1.1867187023162842,9.840673446655273,-0.03595269098877907,0.007989486679434776,-0.013049494475126266,35.02411651611328,0,0,0,0,0,0,0,0.0,0.0,0,0,0,0,0,0,-1515870811
-0.9374609329223632,-1.2643512557983398,9.666201610565185,-0.0012070444662696839,0.00534686177332077,-0.0017853365772007752,26.399999618530273,1737,0.0,0.0,0.0,-0.9283202886581421,-1.1938965320587158,9.910058975219727,-0.035153742879629135,0.0037284272257238626,-0.012783179059624672,34.93000030517578,0,0,0,0,0,0,0,0.0,0.0,0,0,0,0,0,0,-1515870811
-0.9326381683349609,-1.2642054580688475,9.66366342163086,-0.0008556137312379456,0.006170118097536621,-0.0009740045566838073,26.399999618530273,1738,-27.75,30.600000381469727,-68.69999694824219,-0.971386730670929,-1.751367211341858,10.008153915405273,-0.03275689482688904,0.006657905410975218,-0.01491370890289545,34.93000030517578,0,0,0,0,0,0,0,0.0,0.0,0,0,0,0,0,0,-1515870811
-0.9319003944396972,-1.2839969764709471,9.660119826507568,0.0005596233518179322,0.006733156953429108,-0.0024279640017233275,26.399999618530273,1739,0.0,0.0,0.0,-0.966601550579071,-1.17236328125,9.955517768859863,-0.033822160214185715,0.000798948691226542,-0.013848443515598774,34.93000030517578,0,0,0,0,0,0,0,0.0,0.0,0,0,0,0,0,0,-1515870811
-0.927318943786621,-1.291246263885498,9.615494692993163,0.002308434674919281,0.0053903245620121765,-0.0023387747374295042,26.399999618530273,1740,0.0,0.0,0.0,-0.9498535394668579,-1.1819336414337158,9.857421875,-0.03275689482688904,0.004793691914528608,-0.015180024318397045,34.83588409423828,0,0,0,0,0,0,0,0.0,0.0,0,0,0,0,0,0,-1515870811
-0.9821100669860839,-1.2689862030029297,9.635200751495361,0.008667044655213623,0.008915457662086334,0.00016226640410339356,26.399999618530273,1741,-27.149999618530273,31.049999237060547,-68.8499984741211,-0.9881347417831421,-1.1819336414337158,9.926806449890137,-0.03488742560148239,0.006924221757799387,-0.011451597325503826,34.93000030517578,0,0,0,0,0,0,0,0.0,0.0,0,0,0,0,0,0,-1515870811
-0.951682006072998,-1.201594155883789,9.688505074310303,-0.0033526601311631775,0.008571743436260071,-0.0007890080728327942,26.399999618530273,1742,0.0,0.0,0.0,-0.923535168170929,-1.1938965320587158,9.924413681030273,-0.031957946717739105,0.004527375567704439,-0.008255803026258945,35.02411651611328,0,0,0,0,0,0,0,0.0,0.0,0,0,0,0,0,0,-1515870811
-0.9864247825622559,-1.2603573699951172,9.870080146026611,-0.011450460765187073,0.004190197656626434,0.0007038534975627136,26.399999618530273,1743,0.0,0.0,0.0,-0.954638659954071,-1.2058594226837158,9.907666206359863,-0.03542005643248558,0.0026631623040884733,-0.013582127168774605,34.93000030517578,0,0,0,0,0,0,0,0.0,0.0,0,0,0,0,0,0,-1515870811
-0.9388619743347167,-1.3301669303894041,9.974663025665283,-0.004991702612788544,0.002016292563247986,-0.0015752864055670166,26.399999618530273,1744,0.0,0.0,0.0,-1.02880859375,-1.1699707508087158,9.895703315734863,-0.031957946717739105,0.0055926404893398285,-0.018642134964466095,34.93000030517578,0,0,0,0,0,0,0,0.0,0.0,0,0,0,0,0,0,-1515870811
-0.9608343276977539,-1.3982385818481444,9.85210171585083,0.0003908322030886841,0.005010005187254333,-0.004685186089232331,26.299999237060547,1745,-28.350000381469727,30.75,-68.25,-0.9642089605331421,-1.2345702648162842,9.790430068969727,-0.02902846783399582,0.004527375567704439,-0.018109502270817757,35.02411651611328,0,0,0,0,0,0,0,0.0,0.0,0,0,0,0,0,0,-1515870811
-0.9816617950439452,-1.3751492683410644,9.679453240966797,0.0034318159361190798,0.00950254486245697,-0.004077652469733124,26.299999237060547,1746,0.0,0.0,0.0,-0.995312511920929,-1.1484375,9.979443550109863,-0.029561100527644157,0.007723170332610607,-0.009321067482233047,34.93000030517578,0,0,0,0,0,0,0,0.0,0.0,0,0,0,0,0,0,-1515870811
-0.93321552734375,-1.2846222618103027,9.593354074096679,0.0023920845641838074,0.0062248726891723635,0.0009179583319282532,26.299999237060547,1747,0.0,0.0,0.0,-1.009667992591858,-1.167578101158142,10.048828125,-0.045273758471012115,0.0037284272257238626,-0.007456854451447725,34.93000030517578,0,0,0,0,0,0,0,0.0,0.0,0,0,0,0,0,0,-1515870811
-0.907906275177002,-1.2047741539001464,9.596062547302246,-0.0012772919974404907,0.006121954829553528,0.0008400741863841247,26.299999237060547,1748,0.0,0.0,0.0,-0.968994140625,-1.1699707508087158,10.146924018859863,-0.04474112391471863,-0.0013315811520442367,-0.010386332869529724,35.02411651611328,0,0,0,0,0,0,0,0.0,0.0,0,0,0,0,0,0,-1515870811
-0.8960443962097168,-1.16297958984375,9.690986028289794,-0.003394085601634674,0.007320863338748932,-0.0014224475916577149,26.299999237060547,1749,-27.600000381469727,30.899999618530273,-68.4000015258789,-1.02880859375,-1.239355444908142,10.115819931030273,-0.03542005643248558,0.001597897382453084,-0.015446340665221214,35.02411651611328,0,0,0,0,0,0,0,0.0,0.0,0,0,0,0,0,0,-1515870811
-0.9291147232055664,-1.2280257514953612,9.72044853439331,-0.005054466661347656,0.00872390314409607,-0.00504377406964447,26.299999237060547,1750,0.0,0.0,0.0,-1.012060523033142,-1.303955078125,10.0009765625,-0.030626365914940834,0.006391589529812336,-0.015446340665221214,34.93000030517578,0,0,0,0,0,0,0,0.0,0.0,0,0,0,0,0,0,-1515870811
-0.9308702774047851,-1.3094363998413086,9.72322358856201,-0.003544494281065979,0.006344834779650574,-0.004404981597065277,26.399999618530273,1751,0.0,0.0,0.0,-0.930712878704071,-1.2226073741912842,9.866991996765137,-0.028229519724845886,0.006657905410975218,-0.015180024318397045,35.02411651611328,0,0,0,0,0,0,0,0.0,0.0,0,0,0,0,0,0,-1515870811
-0.913560311126709,-1.3292312828063964,9.72166209487915,-0.0047570847802676395,0.004919883816585389,-0.004123651919345398,26.399999618530273,1752,0.0,0.0,0.0,-0.8924316167831421,-1.1484375,9.857421875,-0.030626365914940834,0.004261059686541557,-0.008788435719907284,34.93000030517578,0,0,0,0,0,0,0,0.0,0.0,0,0,0,0,0,0,-1515870811
-0.9208932266235351,-1.311569345855713,9.690410613250732,-0.0003939347857373047,0.004407225310268249,-0.0016014919105133056,26.399999618530273,1753,-28.049999237060547,30.75,-68.69999694824219,-1.000097632408142,-1.1627929210662842,9.914843559265137,-0.03275689482688904,0.0037284272257238626,-0.010120016522705555,34.93000030517578,0,0,0,0,0,0,0,0.0,0.0,0,0,0,0,0,0,-1515870811
-0.9053453941345214,-1.2646312995910645,9.655532020568847,0.002498997165410309,0.002831399614584198,0.0005682053883717346,26.399999618530273,1754,0.0,0.0,0.0,-0.9378906488418579,-1.071874976158142,9.888525009155273,-0.03621900454163551,0.004261059686541557,-0.010918965563178062,35.02411651611328,0,0,0,0,0,0,0,0.0,0.0,0,0,0,0,0,0,-1515870811
-0.9079639213562012,-1.243080339050293,9.631122340393066,0.0005922603907525635,0.0038271954867378235,-0.0012383698983764648,26.399999618530273,1755,0.0,0.0,0.0,-0.9642089605331421,-1.1580078601837158,9.955517768859863,-0.041545331478118896,0.006391589529812336,-0.020772665739059448,34.83588409423828,0,0,0,0,0,0,0,0.0,0.0,0,0,0,0,0,0,-1515870811
-0.9139426750183105,-1.2187838203430175,9.672674954986572,-0.0014208230634039306,0.00631976111815979,-0.003232325198134918,26.399999618530273,1756,0.0,0.0,0.0,-1.0144531726837158,-1.1962890625,9.9052734375,-0.03648532181978226,0.003195794764906168,-0.01491370890289545,35.02411651611328,0,0,0,0,0,0,0,0.0,0.0,0,0,0,0,0,0,-1515870811
-0.9004985168457031,-1.2515463272094727,9.695764081573486,-0.002023696151027527,0.007318865967945099,-0.0038666701917242433,26.5,1757,-27.450000762939453,31.200000762939453,-69.1500015258789,-0.935498058795929,-1.256103515625,9.984228134155273,-0.03781690448522568,0.000798948691226542,-0.014381076209247112,34.93000030517578,0,0,0,0,0,0,0,0.0,0.0,0,0,0,0,0,0,-1515870811
-0.9098828811645507,-1.2960410652160643,9.707933743286132,-0.0021856030283862304,0.008422619732045899,-0.003868554378182526,26.5,1758,0.0,0.0,0.0,-0.954638659954071,-1.2178223133087158,9.876562118530273,-0.03275689482688904,0.0021305298432707787,-0.012783179059624672,35.02411651611328,0,0,0,0,0,0,0,0.0,0.0,0,0,0,0,0,0,-1515870811
-0.9468405868530273,-1.3294263900756835,9.714495314025879,-0.0036350617312144473,0.009144542777480622,-0.0031462851218084717,26.5,1759,0.0,0.0,0.0,-0.9163573980331421,-1.22021484375,9.821533203125,-0.03089268133044243,0.002396845957264304,-0.013315810821950436,34.93000030517578,0,0,0,0,0,0,0,0.0,0.0,0,0,0,0,0,0,-1515870811
-0.9443972412109375,-1.3254727668762207,9.730143335723877,-0.0033776538978218078,0.00878394411045929,-0.0023313778075526427,26.5,1760,0.0,0.0,0.0,-0.923535168170929,-1.1699707508087158,9.823925971984863,-0.035153742879629135,-0.00026631623040884733,-0.014114759862422943,34.93000030517578,0,0,0,0,0,0,0,0.0,0.0,0,0,0,0,0,0,-1515870811
-0.9331532081604004,-1.28925986328125,9.755090000152588,-0.0020788968221427916,0.005078475058409729,-0.0016002468827122497,26.399999618530273,1761,-27.75,31.200000762939453,-69.0,-0.942675769329071,-1.1819336414337158,9.893310546875,-0.03542005643248558,0.0050600082613527775,-0.015978973358869553,34.93000030517578,0,0,0,0,0,0,0,0.0,0.0,0,0,0,0,0,0,-1515870811
-0.9329839332580566,-1.274645622253418,9.733457804107665,-0.0005062935513555908,0.004615644295745545,-0.00350573197166626,26.399999618530273,1762,0.0,0.0,0.0,-0.9881347417831421,-1.239355444908142,9.88134765625,-0.03595269098877907,0.008522119373083115,-0.014381076209247112,34.93000030517578,0,0,0,0,0,0,0,0.0,0.0,0,0,0,0,0,0,-1515870811
-0.9205037597656249,-1.265478758239746,9.707244979858398,0.0006248175348550415,0.0056116265891741944,-0.0025170667132823183,26.399999618530273,1763,0.0,0.0,0.0,-0.9642089605331421,-1.191503882408142,9.948339462280273,-0.038882169872522354,0.005858956836163998,-0.013848443515598774,35.02411651611328,0,0,0,0,0,0,0,0.0,0.0,0,0,0,0,0,0,-1515870811
-0.9084095016479492,-1.272283213043213,9.651104517364502,0.0007119827967343139,0.005951499205154419,-0.004782418099962921,26.399999618530273,1764,0.0,0.0,0.0,-0.9402831792831421,-1.2058594226837158,9.92919921875,-0.03488742560148239,0.006125273182988167,-0.01491370890289545,34.93000030517578,0,0,0,0,0,0,0,0.0,0.0,0,0,0,0,0,0,-1515870811
-0.9037321983337402,-1.285363661956787,9.625579035949707,0.00036280243280822753,0.005701055537964478,-0.0025164675020411683,26.399999618530273,1765,-28.200000762939453,31.049999237060547,-67.80000305175781,-0.95703125,-1.2656738758087158,9.950732231140137,-0.03488742560148239,0.0050600082613527775,-0.008255803026258945,34.93000030517578,0,0,0,0,0,0,0,0.0,0.0,0,0,0,0,0,0,-1515870811
-0.9144075828552246,-1.2911720191955567,9.656265794372558,-0.002002044651513977,0.006954552191228638,-0.0014264489911680603,26.399999618530273,1766,0.0,0.0,0.0,-0.923535168170929,-1.2058594226837158,9.943554878234863,-0.033289529383182526,0.002929478418081999,-0.015446340665221214,34.93000030517578,0,0,0,0,0,0,0,0.0,0.0,0,0,0,0,0,0,-1515870811
-0.9164055725097656,-1.2822740585327148,9.697160487365723,-0.0030905118710627746,0.007420145983504791,-0.0015184944957113648,26.399999618530273,1767,0.0,0.0,0.0,-0.9642089605331421,-1.2106444835662842,9.974658012390137,-0.03169162943959236,0.0055926404893398285,-0.011717913672327995,34.93000030517578,0,0,0,0,0,0,0,0.0,0.0,0,0,0,0,0,0,-1515870811
-0.9350388214111328,-1.2924277114868163,9.715866747283934,-0.002486280571292572,0.007951613064891358,-0.0013418137323069764,26.299999237060547,1768,0.0,0.0,0.0,-0.959423840045929,-1.160400390625,9.972265243530273,-0.03542005643248558,0.001597897382453084,-0.012250546365976334,35.02411651611328,0,0,0,0,0,0,0,0.0,0.0,0,0,0,0,0,0,-1515870811
-0.958939443206787,-1.3152173545837402,9.713263734436035,-0.0016125839763772582,0.007506299244176788,-0.001071622725769806,26.299999237060547,1769,-27.899999618530273,30.899999618530273,-67.6500015258789,-0.887646496295929,-1.1627929210662842,9.886133193969727,-0.033822160214185715,0.003994743339717388,-0.01491370890289545,34.93000030517578,0,0,0,0,0,0,0,0.0,0.0,0,0,0,0,0,0,-1515870811
-0.9674138053894042,-1.3222319450378417,9.722955171203614,-0.002033163688637695,0.007092830171977997,1.9314575673065185e-05,26.399999618530273,1770,0.0,0.0,0.0,-0.921142578125,-1.2106444835662842,9.816747665405273,-0.037017956376075745,0.004527375567704439,-0.012250546365976334,34.93000030517578,0,0,0,0,0,0,0,0.0,0.0,0,0,0,0,0,0,-1515870811
-0.9519464981079101,-1.325077879333496,9.720637996673585,-0.0007088668982803345,0.005391662800450745,-0.001880031927010498,26.399999618530273,1771,0.0,0.0,0.0,-0.9259277582168579,-1.2226073741912842,9.78564453125,-0.03275689482688904,0.006125273182988167,-0.013582127168774605,34.93000030517578,0,0,0,0,0,0,0,0.0,0.0,0,0,0,0,0,0,-1515870811
-0.9389734161376952,-1.3233850929260254,9.69654772567749,7.364971944000244e-05,0.006463352105247345,-0.0025203956646220396,26.399999618530273,1772,0.0,0.0,0.0,-0.942675769329071,-1.184326171875,9.926806449890137,-0.034354791045188904,0.0055926404893398285,-0.012516862712800503,35.02411651611328,0,0,0,0,0,0,0,0.0,0.0,0,0,0,0,0,0,-1515870811
-0.9432937019348144,-1.340923363494873,9.665404807281494,0.0008522781219955445,0.005450185765003052,-0.003697665990109253,26.399999618530273,1773,-28.200000762939453,30.899999618530273,-68.4000015258789,-1.0072753429412842,-1.2417480945587158,9.933984756469727,-0.03408847749233246,0.006391589529812336,-0.011451597325503826,34.83588409423828,0,0,0,0,0,0,0,0.0,0.0,0,0,0,0,0,0,-1515870811
-0.9466450309753418,-1.3429040069580078,9.668227825164795,-0.0007358114304240417,0.006152760945251312,-0.002156567914801178,26.299999237060547,1774,0.0,0.0,0.0,-0.995312511920929,-1.208251953125,9.957910537719727,-0.033289529383182526,0.0013315811520442367,-0.013315810821950436,34.93000030517578,0,0,0,0,0,0,0,0.0,0.0,0,0,0,0,0,0,-1515870811
-0.9392317024230957,-1.3305314994812012,9.700908946990966,-0.00134966339956604,0.0071447817865856935,-0.0014334863943002319,26.299999237060547,1775,0.0,0.0,0.0,-1.035986304283142,-1.213037133216858,9.888525009155273,-0.036751639097929,0.007456854451447725,-0.015180024318397045,34.93000030517578,0,0,0,0,0,0,0,0.0,0.0,0,0,0,0,0,0,-1515870811
-0.941116194152832,-1.3283418792724608,9.703718768310546,-0.0024831580149359132,0.00858969314188385,-0.0011624964394415284,26.399999618530273,1776,0.0,0.0,0.0,-1.012060523033142,-1.232177734375,10.017724990844727,-0.035686373710632324,0.0013315811520442367,-0.015180024318397045,34.93000030517578,0,0,0,0,0,0,0,0.0,0.0,0,0,0,0,0,0,-1515870811
-0.958766242980957,-1.3480084228515625,9.684314847564696,-0.002507918755000763,0.009433821990999756,0.00019883826352157594,26.600000381469727,1777,-27.899999618530273,30.75,-68.0999984741211,-0.9378906488418579,-1.1819336414337158,9.900487899780273,-0.03275689482688904,0.0055926404893398285,-0.012783179059624672,34.93000030517578,0,0,0,0,0,0,0,0.0,0.0,0,0,0,0,0,0,-1515870811
-0.9525358200073242,-1.330468731689453,9.65715714187622,-0.002326411012153778,0.009148837124708863,-0.002788629247771454,26.600000381469727,1778,0.0,0.0,0.0,-0.978564441204071,-1.2178223133087158,9.931591987609863,-0.03408847749233246,0.0018642136128619313,-0.017310554161667824,35.02411651611328,0,0,0,0,0,0,0,0.0,0.0,0,0,0,0,0,0,-1515870811
-0.949838076019287,-1.309886279296875,9.651456674957275,0.0014346848167825317,0.006997036268226166,-0.0008841827916354371,26.600000381469727,1779,0.0,0.0,0.0,-0.978564441204071,-1.2465331554412842,9.919629096984863,-0.03302321210503578,0.0026631623040884733,-0.012250546365976334,34.93000030517578,0,0,0,0,0,0,0,0.0,0.0,0,0,0,0,0,0,-1515870811
-0.9482496658325195,-1.2988957847595215,9.667603923034667,0.0010471482755201721,0.006307424024494782,0.00020258666273010253,26.399999618530273,1780,0.0,0.0,0.0,-0.921142578125,-1.3063476085662842,9.862207412719727,-0.03861585259437561,0.004527375567704439,-0.011451597325503826,34.93000030517578,0,0,0,0,0,0,0,0.0,0.0,0,0,0,0,0,0,-1515870811
-0.9558380638122558,-1.3072170219421386,9.683409854888916,-0.0024445754689085388,0.007097557282880401,-0.001418033402181244,26.399999618530273,1781,-27.75,31.049999237060547,-67.94999694824219,-0.983349621295929,-1.227392554283142,9.986620903015137,-0.03408847749233246,0.006924221757799387,-0.014647392556071281,34.93000030517578,0,0,0,0,0,0,0,0.0,0.0,0,0,0,0,0,0,-1515870811
-0.9465720573425292,-1.3142670524597166,9.702419448852538,-0.0018310031316790772,0.005942104904473724,-0.00023889886394378663,26.399999618530273,1782,0.0,0.0,0.0,-0.990527331829071,-1.272851586341858,9.972265243530273,-0.033289529383182526,0.007190538104623556,-0.009321067482233047,35.02411651611328,0,0,0,0,0,0,0,0.0,0.0,0,0,0,0,0,0,-1515870811
-0.9400592727661132,-1.3233117080688477,9.720021160125732,-0.0011112505625178529,0.007147944290358429,-0.0007866578331869507,26.5,1783,0.0,0.0,0.0,-0.992919921875,-1.1986815929412842,9.862207412719727,-0.035153742879629135,0.005326324608176947,-0.013315810821950436,34.93000030517578,0,0,0,0,0,0,0,0.0,0.0,0,0,0,0,0,0,-1515870811
-0.9512493980407715,-1.3446198593139649,9.717157206726075,-0.0013752896669792175,0.007786097604280395,0.00047978178288604736,26.5,1784,0.0,0.0,0.0,-1.000097632408142,-1.244140625,9.890917778015137,-0.035153742879629135,0.002396845957264304,-0.009587383829057217,34.93000030517578,0,0,0,0,0,0,0,0.0,0.0,0,0,0,0,0,0,-1515870811
-0.9447097717285156,-1.3384387084960938,9.696230335235596,-0.000590136519797821,0.007789133607902222,0.000748701130011444,26.5,1785,-27.299999237060547,31.049999237060547,-68.69999694824219,-0.9857422113418579,-1.2465331554412842,9.900487899780273,-0.034354791045188904,0.005326324608176947,-0.009853700175881386,34.93000030517578,0,0,0,0,0,0,0,0.0,0.0,0,0,0,0,0,0,-1515870811
-0.9434586402893066,-1.3223063018798829,9.682661837768554,0.0007849733838090515,0.008285213936547546,-0.00025575667352813723,26.5,1786,0.0,0.0,0.0,-0.9857422113418579,-1.2058594226837158,9.955517768859863,-0.031957946717739105,0.0018642136128619313,-0.017576871439814568,34.93000030517578,0,0,0,0,0,0,0,0.0,0.0,0,0,0,0,0,0,-1515870811
-0.9402694458007812,-1.303079955291748,9.687228409576417,0.0013909157645678712,0.008020881884368286,0.001282025766245575,26.399999618530273,1787,0.0,0.0,0.0,-0.9618164300918579,-1.2345702648162842,9.941162109375,-0.03781690448522568,0.003994743339717388,-0.012250546365976334,34.93000030517578,0,0,0,0,0,0,0,0.0,0.0,0,0,0,0,0,0,-1515870811
-0.9420869079589843,-1.2928463005065918,9.713709912872314,8.604007632644653e-05,0.006925190840412292,-0.0008828978164183045,26.399999618530273,1788,0.0,0.0,0.0,-1.057519555091858,-1.248925805091858,9.965087890625,-0.03302321210503578,0.0034621108788996935,-0.013582127168774605,35.02411651611328,0,0,0,0,0,0,0,0.0,0.0,0,0,0,0,0,0,-1515870811
-0.9382728019714355,-1.283013963317871,9.736549725341797,-0.000875427649611969,0.007634916608138275,-0.0016970394718659972,26.399999618530273,1789,-27.299999237060547,30.899999618530273,-68.55000305175781,-0.9761718511581421,-1.260888695716858,9.948339462280273,-0.03302321210503578,0.005858956836163998,-0.011717913672327995,34.93000030517578,0,0,0,0,0,0,0,0.0,0.0,0,0,0,0,0,0,-1515870811
-0.926093569946289,-1.278621937561035,9.716399993133544,0.0002639991570452881,0.0055869124544281005,-6.382265508514405e-05,26.399999618530273,1790,0.0,0.0,0.0,-0.9761718511581421,-1.2465331554412842,9.974658012390137,-0.03355584293603897,0.007456854451447725,-0.015180024318397045,35.02411651611328,0,0,0,0,0,0,0,0.0,0.0,0,0,0,0,0,0,-1515870811
-0.9246946968078613,-1.2882208862304687,9.691413776397704,-0.0006267949319508362,0.006795754554421234,-0.0022397051455593873,26.399999618530273,1791,0.0,0.0,0.0,-1.016845703125,-1.236962914466858,9.950732231140137,-0.03648532181978226,0.004261059686541557,-0.013848443515598774,35.02411651611328,0,0,0,0,0,0,0,0.0,0.0,0,0,0,0,0,0,-1515870811
-0.9201348915100097,-1.273086558532715,9.664995526885987,-0.0004768057003883362,0.008197935490322723,-0.001884805643231659,26.399999618530273,1792,-27.450000762939453,30.75,-68.4000015258789,-0.923535168170929,-1.225000023841858,9.898096084594727,-0.0298274178057909,0.002396845957264304,-0.010918965563178062,34.93000030517578,0,0,0,0,0,0,0,0.0,0.0,0,0,0,0,0,0,-1515870811
-0.9171307106018066,-1.2647360496520996,9.66138755645752,-0.0004876114764370728,0.006651551040287171,-0.0013373862270251466,26.299999237060547,1793,0.0,0.0,0.0,-1.012060523033142,-1.184326171875,9.957910537719727,-0.03621900454163551,0.0050600082613527775,-0.011984230019152164,34.93000030517578,0,0,0,0,0,0,0,0.0,0.0,0,0,0,0,0,0,-1515870811
-0.9255142295837402,-1.2532862548828125,9.670362341308593,3.4274882993774416e-05,0.007108070111211243,-0.00043526038766860965,26.299999237060547,1794,0.0,0.0,0.0,-0.95703125,-1.1388671398162842,9.948339462280273,-0.03542005643248558,0.004793691914528608,-0.011984230019152164,35.02411651611328,0,0,0,0,0,0,0,0.0,0.0,0,0,0,0,0,0,-1515870811
-0.9278270301818847,-1.252818879699707,9.69381342010498,-0.0006528539630381775,0.005304244538269653,-0.0025993850220109556,26.399999618530273,1795,0.0,0.0,0.0,-0.9283202886581421,-1.184326171875,9.910058975219727,-0.030626365914940834,0.0050600082613527775,-0.012250546365976334,34.93000030517578,0,0,0,0,0,0,0,0.0,0.0,0,0,0,0,0,0,-1515870811
-0.9282719001770019,-1.2591660903930664,9.713203396606445,-0.000115840848719635,0.007244417300183563,-7.070692645568848e-05,26.399999618530273,1796,-28.350000381469727,31.200000762939453,-69.0,-0.9498535394668579,-1.189111351966858,9.883740425109863,-0.03275689482688904,0.0026631623040884733,-0.011451597325503826,34.93000030517578,0,0,0,0,0,0,0,0.0,0.0,0,0,0,0,0,0,-1515870811
-0.9195069892883301,-1.2627628456115723,9.721865314483642,-0.0016845825359527587,0.006783097881427612,-0.0014219482489567566,26.399999618530273,1797,0.0,0.0,0.0,-0.861328125,-1.167578101158142,9.826318740844727,-0.03488742560148239,0.006391589529812336,-0.011717913672327995,35.02411651611328,0,0,0,0,0,0,0,0.0,0.0,0,0,0,0,0,0,-1515870811
-0.9213195541381836,-1.2732352348327636,9.713338278198242,-0.00028730181642333986,0.006336785375311127,-0.0013346831185372925,26.399999618530273,1798,0.0,0.0,0.0,-0.918749988079071,-1.225000023841858,9.941162109375,-0.031957946717739105,0.0010652649216353893,-0.011451597325503826,34.93000030517578,0,0,0,0,0,0,0,0.0,0.0,0,0,0,0,0,0,-1515870811
-0.9241784980773925,-1.276401998901367,9.699390930938721,6.133925738571166e-05,0.006429077222253571,-0.0010645586910269164,26.399999618530273,1799,0.0,0.0,0.0,-0.9163573980331421,-1.165185570716858,9.922021865844727,-0.03275689482688904,0.002929478418081999,-0.010918965563178062,35.02411651611328,0,0,0,0,0,0,0,0.0,0.0,0,0,0,0,0,0,-1515870811
-0.9166993362426757,-1.2627477424621583,9.691342971038818,0.000672022064852295,0.006685080238180847,-0.002697555797019348,26.399999618530273,1800,-27.450000762939453,30.75,-68.69999694824219,-0.98095703125,-1.184326171875,9.941162109375,-0.035686373710632324,0.0005326324608176947,-0.012516862712800503,34.83588409423828,0,0,0,0,0,0,0,0.0,0.0,0,0,0,0,0,0,-1515870811
-0.9198019493103027,-1.246785358428955,9.694656504821777,-0.0009875467307337953,0.006888625638896789,0.0003863447766827393,26.399999618530273,1801,0.0,0.0,0.0,-0.9091796875,-1.203466773033142,9.914843559265137,-0.03408847749233246,0.002396845957264304,-0.015978973358869553,35.02411651611328,0,0,0,0,0,0,0,0.0,0.0,0,0,0,0,0,0,-1515870811
-0.9202287254333495,-1.247209741973877,9.702760316467284,-0.001920352185637207,0.00502380036160614,-0.0016847090361036682,26.5,1802,0.0,0.0,0.0,-0.9402831792831421,-1.1699707508087158,9.910058975219727,-0.03648532181978226,0.0037284272257238626,-0.012516862712800503,35.02411651611328,0,0,0,0,0,0,0,0.0,0.0,0,0,0,0,0,0,-1515870811
-0.9256382324218749,-1.254810065460205,9.71939546356201,-0.0027061178598651123,0.007008381334391937,-0.0013262542137451171,26.5,1803,0.0,0.0,0.0,-0.947460949420929,-1.167578101158142,9.953125,-0.034354791045188904,0.0026631623040884733,-0.014381076209247112,35.02411651611328,0,0,0,0,0,0,0,0.0,0.0,0,0,0,0,0,0,-1515870811
-0.9252512702941894,-1.2552023361206055,9.71805502166748,-0.0013993047219439698,0.007810745159999695,-0.0020580509288534547,26.5,1804,-28.799999237060547,31.049999237060547,-69.1500015258789,-0.930712878704071,-1.131689429283142,9.957910537719727,-0.03408847749233246,0.002396845957264304,-0.010918965563178062,35.02411651611328,0,0,0,0,0,0,0,0.0,0.0,0,0,0,0,0,0,-1515870811
-0.9252659996032715,-1.2559746154785156,9.704624845123291,-0.001754909961955719,0.004724314583279419,-0.003134054554586334,26.5,1805,0.0,0.0,0.0,-0.992919921875,-1.1388671398162842,9.950732231140137,-0.034354791045188904,0.0026631623040884733,-0.013315810821950436,34.93000030517578,0,0,0,0,0,0,0,0.0,0.0,0,0,0,0,0,0,-1515870811
-0.926413427734375,-1.2537299659729004,9.692075885009766,-0.0005487443388397217,0.006245325766203613,-0.0015145663331304932,26.399999618530273,1806,0.0,0.0,0.0,-0.9642089605331421,-1.1747558116912842,9.979443550109863,-0.035686373710632324,0.0026631623040884733,-0.010120016522705555,35.02411651611328,0,0,0,0,0,0,0,0.0,0.0,0,0,0,0,0,0,-1515870811
-0.9260182785034179,-1.2356549728393553,9.68151732559204,-0.00010980213098937988,0.005345863087918854,-0.001875151684346466,26.399999618530273,1807,0.0,0.0,0.0,-0.968994140625,-1.1508300304412842,9.986620903015137,-0.031158998608589172,0.002929478418081999,-0.010386332869529724,34.93000030517578,0,0,0,0,0,0,0,0.0,0.0,0,0,0,0,0,0,-1515870811
-0.9238840988159179,-1.2317987350463866,9.674823863983153,-0.0011709053705256654,0.00513144533212738,-0.0027776170767396546,26.399999618530273,1808,-27.899999618530273,31.049999237060547,-68.8499984741211,-0.990527331829071,-1.160400390625,9.938769340515137,-0.03728426992893219,0.007723170332610607,-0.013848443515598774,35.02411651611328,0,0,0,0,0,0,0,0.0,0.0,0,0,0,0,0,0,-1515870811
-0.9214397064208985,-1.232390860748291,9.69952046661377,-9.643972031173706e-05,0.004682349822690887,-0.0009741310568347168,26.100000381469727,1809,0.0,0.0,0.0,-0.9498535394668579,-1.1484375,9.917236328125,-0.036751639097929,0.0037284272257238626,-0.009321067482233047,35.02411651611328,0,0,0,0,0,0,0,0.0,0.0,0,0,0,0,0,0,-1515870811
-0.929234838104248,-1.239891032409668,9.715896467590332,-0.0017542841191038514,0.004850262128266449,-0.002146161612913208,26.100000381469727,1810,0.0,0.0,0.0,-0.959423840045929,-1.143652319908142,9.910058975219727,-0.031957946717739105,0.005326324608176947,-0.015446340665221214,34.93000030517578,0,0,0,0,0,0,0,0.0,0.0,0,0,0,0,0,0,-1515870811
-0.9237454788208007,-1.2508611526489257,9.727640699005127,-0.0030585472802987673,0.004867772412313385,-0.0009640310184700012,26.200000762939453,1811,0.0,0.0,0.0,-0.992919921875,-1.1986815929412842,9.917236328125,-0.03408847749233246,0.0055926404893398285,-0.007989486679434776,34.93000030517578,0,0,0,0,0,0,0,0.0,0.0,0,0,0,0,0,0,-1515870811
-0.9313843452453613,-1.2611981742858887,9.713700604248046,-0.0010574879983813476,0.004742910105463104,-0.0010537728886862183,26.5,1812,-28.049999237060547,30.75,-68.55000305175781,-0.894824206829071,-1.1460449695587158,9.933984756469727,-0.03462110832333565,0.004527375567704439,-0.011185280978679657,34.93000030517578,0,0,0,0,0,0,0,0.0,0.0,0,0,0,0,0,0,-1515870811
-0.9335669746398926,-1.2669193145751954,9.70611990737915,-0.0030511636662272643,0.00557459533447113,-0.0011389074902482606,26.5,1813,0.0,0.0,0.0,-1.0072753429412842,-1.1867187023162842,9.991406440734863,-0.03408847749233246,0.0034621108788996935,-0.012516862712800503,34.83588409423828,0,0,0,0,0,0,0,0.0,0.0,0,0,0,0,0,0,-1515870811
-0.9320676879882812,-1.260423203277588,9.69498331604004,-0.0007796004563467408,0.004416952506082916,-0.0004183027095440674,26.5,1814,0.0,0.0,0.0,-0.978564441204071,-1.1269042491912842,9.991406440734863,-0.03595269098877907,0.002929478418081999,-0.013049494475126266,35.02411651611328,0,0,0,0,0,0,0,0.0,0.0,0,0,0,0,0,0,-1515870811
-0.9373531547546387,-1.2590968551635742,9.694780059051514,-0.001700801186879883,0.005575321045863189,-0.0022344720340533447,26.399999618530273,1815,0.0,0.0,0.0,-0.899609386920929,-1.1460449695587158,9.986620903015137,-0.03408847749233246,0.00026631623040884733,-0.010652649216353893,35.02411651611328,0,0,0,0,0,0,0,0.0,0.0,0,0,0,0,0,0,-1515870811
-0.9340474342346191,-1.2615177330017089,9.7034642578125,-0.0010946657269433593,0.0053915762477159115,-0.0017836188383094787,26.299999237060547,1816,-28.5,30.899999618530273,-69.44999694824219,-0.945068359375,-1.153222680091858,9.922021865844727,-0.035153742879629135,0.004527375567704439,-0.012250546365976334,35.02411651611328,0,0,0,0,0,0,0,0.0,0.0,0,0,0,0,0,0,-1515870811
-0.9332590423583984,-1.2660244155883789,9.710150093078614,-0.0014452708820428468,0.005930866364750824,-0.0016031896756965637,26.299999237060547,1817,0.0,0.0,0.0,-0.98095703125,-1.1627929210662842,9.962695121765137,-0.033289529383182526,0.0037284272257238626,-0.013582127168774605,34.93000030517578,0,0,0,0,0,0,0,0.0,0.0,0,0,0,0,0,0,-1515870811
-0.9395600463867188,-1.267633723449707,9.714345890045166,-0.0017107480934829711,0.007105620003025208,-0.0005197358568653869,26.299999237060547,1818,0.0,0.0,0.0,-0.968994140625,-1.177148461341858,9.996191024780273,-0.033822160214185715,0.0055926404893398285,-0.015180024318397045,34.93000030517578,0,0,0,0,0,0,0,0.0,0.0,0,0,0,0,0,0,-1515870811
-0.9421999198913574,-1.2726518569946288,9.706184469604493,-0.0026850922032034302,0.007236054974418183,-0.0030536870113427733,26.299999237060547,1819,0.0,0.0,0.0,-0.992919921875,-1.2106444835662842,9.9052734375,-0.031158998608589172,0.000798948691226542,-0.012250546365976334,34.93000030517578,0,0,0,0,0,0,0,0.0,0.0,0,0,0,0,0,0,-1515870811
-0.9418882865905761,-1.2679363098144532,9.68360178451538,-0.0012974854162672424,0.00797478256621582,0.0003795071106309509,26.399999618530273,1820,-27.450000762939453,30.899999618530273,-68.8499984741211,-0.9642089605331421,-1.160400390625,9.972265243530273,-0.03222426399588585,0.0050600082613527775,-0.010918965563178062,34.93000030517578,0,0,0,0,0,0,0,0.0,0.0,0,0,0,0,0,0,-1515870811
-0.9415417366027832,-1.26408609085083,9.672476931762695,-0.001446975305128784,0.006388390778979492,-0.0005181379602223206,26.399999618530273,1821,0.0,0.0,0.0,-0.98095703125,-1.1819336414337158,9.972265243530273,-0.035153742879629135,0.0018642136128619313,-0.012250546365976334,34.93000030517578,0,0,0,0,0,0,0,0.0,0.0,0,0,0,0,0,0,-1515870811
-0.9398226318359375,-1.2627523406982422,9.680740896606444,-0.002056013610633545,0.005845139209850312,-0.0010574413930625915,26.399999618530273,1822,0.0,0.0,0.0,-0.875683605670929,-1.184326171875,9.933984756469727,-0.03808322176337242,0.0037284272257238626,-0.014647392556071281,34.93000030517578,0,0,0,0,0,0,0,0.0,0.0,0,0,0,0,0,0,-1515870811
-0.9463256965637207,-1.2733933319091797,9.688685751342772,-0.0029287181780496218,0.00593246426139389,-0.001235819921650238,26.399999618530273,1823,-27.600000381469727,31.049999237060547,-68.8499984741211,-1.021630883216858,-1.22021484375,9.953125,-0.03275689482688904,0.004527375567704439,-0.013049494475126266,34.93000030517578,0,0,0,0,0,0,0,0.0,0.0,0,0,0,0,0,0,-1515870811
-0.9395790374755859,-1.277018723297119,9.698660035705567,-0.0013586915155993653,0.006282869679412995,-0.002419714860303497,26.399999618530273,1824,0.0,0.0,0.0,-0.9522460699081421,-1.203466773033142,9.902880668640137,-0.03621900454163551,0.003994743339717388,-0.012783179059624672,35.02411651611328,0,0,0,0,0,0,0,0.0,0.0,0,0,0,0,0,0,-1515870811
-0.9409326759338379,-1.2886198860168456,9.714162857818604,-0.00231849476586792,0.006113186371724701,-0.0011480221590164184,26.399999618530273,1825,0.0,0.0,0.0,-0.9498535394668579,-1.2058594226837158,9.922021865844727,-0.036751639097929,0.004527375567704439,-0.013582127168774605,34.93000030517578,0,0,0,0,0,0,0,0.0,0.0,0,0,0,0,0,0,-1515870811
