adisAccelX,adisAccelY,adisAccelZ,adisGyroX,adisGyroY,adisGyroZ,adisTemp,adisDataCNT,lsmMagX,lsmMagY,lsmMagZ,mpuAccelX,mpuAccelY,mpuAccelZ,mpuGyroX,mpuGyroY,mpuGyroZ,mpuTemp,year,month,day,hour,min,sec,fixType,fLon,fLat,height,hMSL,hAcc,vAcc,gSpeed,headMot,padding
-0.07270342102050781,0.012498641204833984,9.825057134246826,-0.0014997924470848084,0.008936030581365814,-0.002533225443085327,30.100000381469727,63280,,,,-0.04306640475988388,0.09091796725988388,10.0966796875,-0.036751639097929,0.0013315811520442367,-0.010918965563178062,39.11823654174805,,,,,,,,,,,,,,,,2779096485
-0.07044609832763672,0.008918148040771484,9.827406720733642,-0.0021924939576594546,0.007056211707241058,-0.0020713933658230593,30.100000381469727,63281,18.0,-20.700000762939453,-70.94999694824219,-0.06938476860523224,0.11484374850988388,10.146924018859863,-0.03781690448522568,0.003994743339717388,-0.010120016522705555,39.11823654174805,,,,,,,,,,,,,,,,2779096485
-0.07272495422363282,0.010569438171386718,9.819664973449706,-0.000616295419425354,0.008335840628522034,-0.0014465025940385437,30.100000381469727,63282,,,,-0.035888671875,0.08852539211511612,10.094286918640137,-0.03648532181978226,0.0026631623040884733,-0.011451597325503826,39.11823654174805,,,,,,,,,,,,,,,,2779096485
-0.07129209899902343,0.01127872543334961,9.824184478759765,-0.001581191965243683,0.006704208392578888,-0.0013477725552050782,30.0,63283,,,,-0.11245117336511612,0.11245117336511612,10.218701362609863,-0.03834953531622887,0.0037284272257238626,-0.009054751135408878,39.11823654174805,,,,,,,,,,,,,,,,2779096485
-0.06880505142211914,0.007061395263671875,9.833601217651367,-0.0007968976875079346,0.00714267788933899,-0.0026199379675823976,30.0,63284,,,,-0.06938476860523224,0.16987304389476776,10.130175590515137,-0.03621900454163551,0.004527375567704439,-0.010120016522705555,39.11823654174805,,,,,,,,,,,,,,,,2779096485
-0.06597638854980468,0.012571726989746094,9.823759048461914,-0.0005236773352516174,0.00816687637432312,-0.0012646419823495484,30.100000381469727,63285,18.899999618530273,-21.899999618530273,-71.0999984741211,-0.08852539211511612,0.12680664658546448,10.122998237609863,-0.03808322176337242,0.006125273182988167,-0.008255803026258945,39.11823654174805,,,,,,,,,,,,,,,,2779096485
-0.07339446487426758,0.012870313262939453,9.823681663513183,0.0010800915779780578,0.00841889130654541,-9.055413434310913e-05,30.200000762939453,63286,,,,-0.12680664658546448,0.083740234375,10.197168350219727,-0.037550587207078934,0.004527375567704439,-0.007723170332610607,39.11823654174805,,,,,,,,,,,,,,,,2779096485
-0.07098012924194336,0.00830202178955078,9.829322988891601,-0.0005712147603828431,0.006351233024125519,-0.0005303751853471374,30.200000762939453,63287,,,,-0.06459961086511612,0.107666015625,10.099072456359863,-0.037550587207078934,0.0055926404893398285,-0.009587383829057217,39.02411651611328,,,,,,,,,,,,,,,,2779096485
-0.06959594802856445,0.009005514526367187,9.827363953399658,-0.002233486664456787,0.006510336924456177,-0.0017029516894453431,30.200000762939453,63288,,,,-0.03828125074505806,0.16987304389476776,10.139745712280273,-0.036751639097929,0.005858956836163998,-0.004527375567704439,39.21235275268555,,,,,,,,,,,,,,,,2779096485
-0.06847483825683594,0.014957501220703124,9.82351623916626,-0.0006218747418707275,0.006877640099475708,-0.002166794453316803,30.0,63289,18.450000762939453,-20.25,-71.55000305175781,-0.06220703199505806,0.09091796725988388,10.094286918640137,-0.03621900454163551,0.001597897382453084,-0.011185280978679657,39.11823654174805,,,,,,,,,,,,,,,,2779096485
-0.0721828857421875,0.00780507583618164,9.833287453460693,-0.002458996486112213,0.00833779139400711,0.00109477891128891,30.0,63290,,,,-0.09091796725988388,0.10527344048023224,10.1923828125,-0.03595269098877907,0.007989486679434776,-0.009054751135408878,39.11823654174805,,,,,,,,,,,,,,,,2779096485
-0.07486814346313476,0.011693949890136718,9.830835696411132,-0.0009401890689749146,0.007239157557066803,-0.0009040699469389343,30.0,63295,19.200000762939453,-21.149999618530273,-72.1500015258789,-0.10048828274011612,0.14594726264476776,10.094286918640137,-0.03781690448522568,0.0021305298432707787,-0.010120016522705555,39.11823654174805,,,,,,,,,,,,,,,,2779096485
-0.07629621353149414,0.008407332611083984,9.831234098052978,-0.0022425880174195864,0.006887240795139466,-0.0009884122580821229,30.0,63296,,,,-0.05742187425494194,0.12919922173023224,10.149316787719727,-0.035686373710632324,0.007989486679434776,-0.009321067482233047,39.11823654174805,,,,,,,,,,,,,,,,2779096485
-0.07426315765380859,0.015270891571044921,9.826843380737305,-0.0017202888680226136,0.007500986237838593,-0.002713095341873169,30.0,63297,18.149999618530273,-20.549999237060547,-71.0999984741211,-0.08852539211511612,0.10527344048023224,10.115819931030273,-0.03781690448522568,0.003195794764906168,-0.010120016522705555,39.11823654174805,,,,,,,,,,,,,,,,2779096485
-0.07060894317626953,0.010063632202148436,9.822933683776855,-0.0009121126933757019,0.008004796391494751,-0.0014475012794404603,30.100000381469727,63298,,,,-0.04306640475988388,0.107666015625,10.108642578125,-0.03781690448522568,0.004793691914528608,-0.006924221757799387,39.21235275268555,,,,,,,,,,,,,,,,2779096485
-0.07238169403076172,0.008134840393066407,9.826842333984375,0.00015894411066635133,0.008316812342664185,-0.0017217402908067322,30.200000762939453,63299,,,,-0.02392578125,0.05502929538488388,10.029687881469727,-0.03968111798167229,0.004261059686541557,-0.013582127168774605,39.11823654174805,,,,,,,,,,,,,,,,2779096485
-0.07441250686645508,0.013255443572998047,9.82782930984497,-0.0020187293556286623,0.007239497110103454,-0.0016198211165898133,30.200000762939453,63300,,,,-0.05263672024011612,0.095703125,10.113428115844727,-0.03595269098877907,0.004793691914528608,-0.010918965563178062,39.11823654174805,,,,,,,,,,,,,,,,2779096485
-0.07253848266601562,0.01446780776977539,9.82786407699585,-0.002114117127317047,0.006675998858926086,-0.0025240575110957336,30.200000762939453,63301,18.299999237060547,-21.299999237060547,-71.0999984741211,-0.06938476860523224,0.11245117336511612,10.154101371765137,-0.03728426992893219,0.004793691914528608,-0.009853700175881386,39.21235275268555,,,,,,,,,,,,,,,,2779096485
-0.0721697639465332,0.01323226547241211,9.83219733505249,-0.0015183147323390197,0.006559399009300995,-0.0026176343332553103,30.100000381469727,63302,,,,-0.01914062537252903,0.155517578125,10.058398246765137,-0.03542005643248558,0.0037284272257238626,-0.009321067482233047,39.11823654174805,,,,,,,,,,,,,,,,2779096485
-0.07365170440673828,0.012785451507568359,9.83058776550293,-0.0013183179937512207,0.00634201182891449,-0.0018002369633973695,30.100000381469727,63303,,,,-0.05024414137005806,0.12202148139476776,10.034472465515137,-0.03781690448522568,0.005326324608176947,-0.009321067482233047,39.11823654174805,,,,,,,,,,,,,,,,2779096485
-0.07213791275024414,0.013240751647949219,9.821703898620605,-0.0025480991976712035,0.0073348981975971984,0.00019251325597610474,30.100000381469727,63304,,,,-0.06938476860523224,0.16030272841453552,10.108642578125,-0.03595269098877907,0.004527375567704439,-0.010386332869529724,39.11823654174805,,,,,,,,,,,,,,,,2779096485
-0.0706015411376953,0.010999803161621094,9.825292877960205,-0.0018082597361260987,0.0075160663874075315,-0.0009015665755314637,29.899999618530273,63305,18.149999618530273,-21.0,-71.25,-0.09809570014476776,0.131591796875,10.154101371765137,-0.03834953531622887,0.0034621108788996935,-0.009054751135408878,39.11823654174805,,,,,,,,,,,,,,,,2779096485
-0.07060662536621093,0.010883426666259766,9.8238969581604,-0.0008498879349336242,0.006246870399625244,-0.0016254070969378663,29.899999618530273,63306,,,,-0.09331054985523224,0.08852539211511612,10.113428115844727,-0.03621900454163551,0.0037284272257238626,-0.007723170332610607,39.11823654174805,,,,,,,,,,,,,,,,2779096485
-0.06901451416015625,0.012681710815429688,9.830356507873535,-0.0012221778790600585,0.0077206237893307494,-0.0034424020013793947,29.899999618530273,63307,,,,-0.09331054985523224,0.11005859076976776,10.099072456359863,-0.037550587207078934,0.004527375567704439,-0.006924221757799387,39.11823654174805,,,,,,,,,,,,,,,,2779096485
-0.06524272689819335,0.010841033172607421,9.829842776489258,-0.00019116170173217773,0.00696015148738205,-0.0019878899504174805,30.200000762939453,63308,,,,-0.03828125074505806,0.10048828274011612,10.161279678344727,-0.03728426992893219,0.0018642136128619313,-0.009321067482233047,39.21235275268555,,,,,,,,,,,,,,,,2779096485
-0.07109960861206055,0.006553645324707031,9.83279536743164,-0.0023461982989170837,0.00853444586544983,-0.002073763579176941,30.30000114440918,63309,18.299999237060547,-20.700000762939453,-71.55000305175781,-0.07416991889476776,0.11484374850988388,10.154101371765137,-0.03621900454163551,0.0026631623040884733,-0.012250546365976334,39.11823654174805,,,,,,,,,,,,,,,,2779096485
-0.06990253448486328,0.012949417877197266,9.831999124908448,0.0006191982649935914,0.00862774305569687,-0.001993828799607544,30.30000114440918,63310,,,,-0.08852539211511612,0.13398437201976776,10.032079696655273,-0.03781690448522568,0.005858956836163998,-0.010386332869529724,39.11823654174805,,,,,,,,,,,,,,,,2779096485
-0.06776517715454101,0.0022502944946289063,9.82439323120117,-0.0003809785071231079,0.007111359115134888,-0.002170263220612793,30.200000762939453,63311,,,,-0.09091796725988388,0.11484374850988388,10.089502334594727,-0.035686373710632324,0.004261059686541557,-0.010918965563178062,39.11823654174805,2024,5,21,15,35,57,0,16.588321685791016,49.223960876464844,315435,273066,25511232,1826328,0,283,2779096485
-0.067707568359375,0.009218715667724609,9.826492980194091,-0.0007600994593986511,0.007403148357964172,-0.0038028541945417786,30.0,63312,,,,-0.08852539211511612,0.1435546875,10.118212699890137,-0.03834953531622887,0.005326324608176947,-0.008255803026258945,39.21235275268555,,,,,,,,,,,,,,,,2779096485
-0.06499161834716796,0.005965332794189453,9.830507277679443,-0.0007631687525338746,0.008479877695089112,-0.003716061775212555,30.0,63313,19.049999237060547,-20.700000762939453,-71.55000305175781,-0.12680664658546448,0.08613280951976776,10.091894149780273,-0.03781690448522568,0.0050600082613527775,-0.008788435719907284,39.11823654174805,,,,,,,,,,,,,,,,2779096485
-0.06846971664428711,0.012036312866210937,9.83129948272705,-0.00016645422488876342,0.007842470066267242,-0.0018154302973118592,30.0,63314,,,,-0.10527344048023224,0.08134765923023224,10.103857040405273,-0.037017956376075745,0.006391589529812336,-0.013848443515598774,39.11823654174805,,,,,,,,,,,,,,,,2779096485
-0.06882994918823242,0.0075440979003906245,9.82747251663208,-0.0025279457262605285,0.00682043539965393,-0.003706394500522003,29.899999618530273,63315,,,,-0.11484374850988388,0.12202148139476776,10.065576553344727,-0.040213748812675476,0.002396845957264304,-0.008522119373083115,39.02411651611328,,,,,,,,,,,,,,,,2779096485
-0.06584128265380859,0.00823596420288086,9.8271125831604,-0.0007034939708180236,0.008915584162237243,-6.970824105377197e-06,29.899999618530273,63316,,,,-0.10048828274011612,0.07416991889476776,9.967480659484863,-0.03941480070352554,0.004527375567704439,-0.006657905410975218,39.21235275268555,,,,,,,,,,,,,,,,2779096485
-0.07133277282714844,0.00709268569946289,9.828186701202393,-0.0020851286190507507,0.007665076907276153,-0.0013553226168435668,30.0,63317,18.75,-20.850000381469727,-71.69999694824219,-0.07895507663488388,0.11962890625,10.12060546875,-0.037017956376075745,0.0034621108788996935,-0.010120016522705555,39.11823654174805,,,,,,,,,,,,,,,,2779096485
-0.07269332733154296,0.007622828674316406,9.8260502784729,-0.0007558250858784485,0.0056257946060760495,-0.0018947858393481445,30.0,63318,,,,-0.06938476860523224,0.14833983778953552,10.151708602905273,-0.036751639097929,0.006657905410975218,-0.008788435719907284,39.11823654174805,,,,,,,,,,,,,,,,2779096485
-0.06801067810058593,0.006078232574462891,9.826901587677002,-0.001995826170411377,0.00791320362433365,-0.0013482852137113952,30.0,63319,,,,-0.06220703199505806,0.16269531846046448,10.173242568969727,-0.03728426992893219,0.003994743339717388,-0.010652649216353893,39.11823654174805,,,,,,,,,,,,,,,,2779096485
-0.06951179656982422,0.007572920989990234,9.827686988830566,-0.00042292995190628053,0.007012023207157593,-0.002075101817615509,30.0,63320,,,,-0.03828125074505806,0.09331054985523224,10.108642578125,-0.03808322176337242,0.0050600082613527775,-0.013848443515598774,39.11823654174805,,,,,,,,,,,,,,,,2779096485
-0.07185801849365234,0.006102494812011718,9.83196263809204,-0.0012963802044224548,0.007457976186529388,-0.002254758663517609,30.0,63321,18.299999237060547,-20.549999237060547,-71.4000015258789,-0.10527344048023224,0.08613280951976776,10.108642578125,-0.03728426992893219,0.007723170332610607,-0.004261059686541557,39.11823654174805,,,,,,,,,,,,,,,,2779096485
-0.07261295166015624,0.006748416137695312,9.830987924194336,-0.0014700782274264525,0.007188817154907532,-0.0022532073721932984,30.0,63322,,,,-0.03828125074505806,0.06699218600988388,10.115819931030273,-0.03834953531622887,0.006924221757799387,-0.012516862712800503,39.11823654174805,,,,,,,,,,,,,,,,2779096485
-0.07095339965820312,0.006648600769042968,9.831879570770264,0.00025132251034362793,0.008068039809046784,-0.0003622631426911926,30.0,63323,,,,-0.107666015625,0.07416991889476776,10.122998237609863,-0.03648532181978226,0.004261059686541557,-0.010120016522705555,39.11823654174805,,,,,,,,,,,,,,,,2779096485
-0.07001737823486327,0.00814650421142578,9.829504189300536,-0.00138112198972641,0.006562015565054016,-0.0021607557355865477,30.100000381469727,63324,,,,-0.07416991889476776,0.14116211235523224,10.099072456359863,-0.03994743525981903,0.004793691914528608,-0.012783179059624672,39.11823654174805,,,,,,,,,,,,,,,,2779096485
-0.06852642822265624,0.010726376342773437,9.8306154296875,-0.00033554497923858644,0.0071777916680703735,-0.0037061415002201843,30.100000381469727,63325,18.450000762939453,-20.850000381469727,-71.25,-0.08134765923023224,0.16508789360523224,10.091894149780273,-0.035686373710632324,0.0026631623040884733,-0.007989486679434776,39.11823654174805,,,,,,,,,,,,,,,,2779096485
-0.07086592102050782,0.01069400177001953,9.825183753967284,-0.0011216368906977845,0.007367728315709534,-0.0023456124034812926,30.100000381469727,63326,,,,-0.09331054985523224,0.1435546875,10.091894149780273,-0.03781690448522568,0.0055926404893398285,-0.007723170332610607,39.21235275268555,,,,,,,,,,,,,,,,2779096485
-0.06944401931762695,0.013429802703857421,9.833427082824707,-0.0006874484253605651,0.008168294507593842,-0.0031650138020457457,30.100000381469727,63327,,,,-0.10048828274011612,0.16269531846046448,10.051220893859863,-0.03808322176337242,0.0026631623040884733,-0.009853700175881386,39.11823654174805,,,,,,,,,,,,,,,,2779096485
-0.07038766708374024,0.007607575988769531,9.827362570190429,-0.001031468914710083,0.006124651280138702,-0.000892531801595459,30.100000381469727,63328,,,,-0.07895507663488388,0.11245117336511612,9.986620903015137,-0.03861585259437561,0.006657905410975218,-0.007723170332610607,39.11823654174805,,,,,,,,,,,,,,,,2779096485
-0.07309898147583008,0.008957550811767578,9.827229034423828,-0.00103210141546463,0.0066444337423228455,-0.0030678949756607057,30.100000381469727,63329,18.75,-20.399999618530273,-71.8499984741211,-0.06699218600988388,0.13876953721046448,10.175634384155273,-0.036751639097929,0.007456854451447725,-0.0034621108788996935,39.11823654174805,,,,,,,,,,,,,,,,2779096485
-0.08042378463745117,0.010621102905273436,9.829168069458008,-0.0007231014942089844,0.008291132812029572,-0.002534557023621216,30.0,63330,,,,-0.011962890625,0.1435546875,10.063183784484863,-0.03941480070352554,0.004261059686541557,-0.011451597325503826,39.11823654174805,,,,,,,,,,,,,,,,2779096485
-0.07030078659057618,0.011886888885498046,9.824080513763427,-0.0006789729152496338,0.0074179821651339725,-0.0009961687147036742,29.899999618530273,63331,,,,-0.12680664658546448,0.13398437201976776,10.122998237609863,-0.037550587207078934,0.007456854451447725,-0.011984230019152164,39.11823654174805,,,,,,,,,,,,,,,,2779096485
-0.0748159927368164,0.01341567153930664,9.826750705718993,-0.0013963419552516176,0.0075456740806230166,-0.0028977988780062866,29.899999618530273,63332,,,,-0.06220703199505806,0.10048828274011612,10.060791015625,-0.03648532181978226,0.0037284272257238626,-0.007190538104623556,39.11823654174805,,,,,,,,,,,,,,,,2779096485
-0.07464899826049805,0.01416275405883789,9.830164204406739,0.0007284211584498596,0.0069780812192977906,-0.002266503203844147,30.100000381469727,63333,18.75,-20.399999618530273,-71.0999984741211,-0.095703125,0.12680664658546448,10.089502334594727,-0.037017956376075745,0.005326324608176947,-0.011185280978679657,39.11823654174805,,,,,,,,,,,,,,,,2779096485
-0.07108020629882812,0.007666194152832031,9.828767499542236,-0.0004496481153588867,0.007768380925250397,-0.002895029190491638,30.200000762939453,63334,,,,-0.107666015625,0.07656250149011612,10.089502334594727,-0.03648532181978226,0.003994743339717388,-0.011717913672327995,39.21235275268555,,,,,,,,,,,,,,,,2779096485
-0.07186392517089843,0.012004611206054687,9.834084593200684,-0.0012362726590324402,0.008307125094265594,-0.002713062052359772,30.200000762939453,63335,,,,-0.107666015625,0.11005859076976776,10.180419921875,-0.040746383368968964,0.0050600082613527775,-0.008522119373083115,39.02411651611328,,,,,,,,,,,,,,,,2779096485
-0.07193831939697265,0.014622502899169922,9.826735677337647,0.0004055461680102539,0.00829198502357254,-0.0015427425772698974,30.200000762939453,63336,19.649999618530273,-20.25,-71.0999984741211,-0.09091796725988388,0.095703125,10.151708602905273,-0.037550587207078934,0.007723170332610607,-0.010120016522705555,39.11823654174805,,,,,,,,,,,,,,,,2779096485
-0.07763418807983398,0.014781684112548828,9.830325329589844,-0.0010227071147839355,0.0074218570644934085,-0.0015379089399246216,30.0,63337,,,,-0.107666015625,0.13637694716453552,10.056005477905273,-0.03621900454163551,0.004261059686541557,-0.007989486679434776,39.11823654174805,,,,,,,,,,,,,,,,2779096485
-0.07493135986328124,0.011208892059326172,9.83023740234375,-0.001980566257470093,0.007049380699091949,-0.0030728617710595704,30.0,63338,,,,-0.08134765923023224,0.16030272841453552,10.12060546875,-0.035153742879629135,0.004527375567704439,-0.011717913672327995,39.11823654174805,,,,,,,,,,,,,,,,2779096485
-0.07066404724121093,0.012555464935302733,9.832759030151367,-0.001191638079469452,0.007503429688121948,-0.003529567263258667,30.100000381469727,63339,,,,-0.07895507663488388,0.12441406399011612,10.12060546875,-0.036751639097929,0.004527375567704439,-0.011185280978679657,39.02411651611328,,,,,,,,,,,,,,,,2779096485
-0.07151935653686524,0.01804325408935547,9.832105968475341,-0.0009941180806784058,0.006373750050987397,-0.0034338865438523864,30.100000381469727,63340,18.600000381469727,-19.649999618530273,-71.4000015258789,-0.05263672024011612,0.11245117336511612,10.182812690734863,-0.03621900454163551,0.005858956836163998,-0.009321067482233047,39.11823654174805,,,,,,,,,,,,,,,,2779096485
-0.06938214874267577,0.010615233612060546,9.829024888610839,-0.000740784883725586,0.00907984793714447,-0.0015424229979412842,30.100000381469727,63341,,,,-0.11484374850988388,0.10527344048023224,10.082324028015137,-0.037017956376075745,0.006125273182988167,-0.010120016522705555,39.11823654174805,,,,,,,,,,,,,,,,2779096485
-0.07380340881347656,0.01498759536743164,9.828646599578857,0.0004875715290209961,0.006652523094078369,-0.002443803152197723,30.100000381469727,63342,,,,-0.131591796875,0.13398437201976776,10.108642578125,-0.03808322176337242,0.004527375567704439,-0.008255803026258945,39.21235275268555,,,,,,,,,,,,,,,,2779096485
-0.07245317230224609,0.012178671264648437,9.829039692687989,-0.0004635365003482056,0.007210455338615722,-0.0020792962963035585,30.100000381469727,63343,,,,-0.07177734375,0.11484374850988388,10.091894149780273,-0.037550587207078934,0.004527375567704439,-0.007456854451447725,39.21235275268555,,,,,,,,,,,,,,,,2779096485
-0.07406973266601562,0.012291496276855468,9.83269543991089,-0.00010173275294189454,0.007873555813877563,-0.0010853246894841004,30.100000381469727,63344,18.75,-21.600000381469727,-71.69999694824219,-0.06459961086511612,0.14833983778953552,10.058398246765137,-0.036751639097929,0.003195794764906168,-0.006924221757799387,39.11823654174805,,,,,,,,,,,,,,,,2779096485
-0.0687267318725586,0.007444132995605469,9.8289979347229,-0.0012356601319859315,0.008125517482878418,-0.00298411858624527,30.100000381469727,63345,,,,-0.11962890625,0.18901367485523224,10.058398246765137,-0.034354791045188904,0.0034621108788996935,-0.010120016522705555,39.21235275268555,,,,,,,,,,,,,,,,2779096485
-0.06981572875976562,0.011263996124267577,9.835093849945068,-0.0012717792540219116,0.008002705810053405,0.00045468814768722537,30.0,63346,,,,-0.02153320237994194,0.16748046875,10.077539443969727,-0.038882169872522354,0.006125273182988167,-0.008788435719907284,39.11823654174805,,,,,,,,,,,,,,,,2779096485
-0.07034403991699219,0.010549549865722655,9.831321128082275,-0.0013765213789749145,0.009127411993886414,-0.0012709803057003785,29.899999618530273,63347,,,,-0.06699218600988388,0.08134765923023224,10.103857040405273,-0.035153742879629135,0.002929478418081999,-0.009587383829057217,39.02411651611328,,,,,,,,,,,,,,,,2779096485
-0.06891439971923828,0.010630261993408203,9.82484068069458,-0.0016353140561248779,0.008138573630032807,-0.0015383017561827088,29.899999618530273,63348,18.299999237060547,-20.850000381469727,-71.25,-0.06699218600988388,0.04545898362994194,10.091894149780273,-0.0391484834253788,0.004261059686541557,-0.010652649216353893,39.21235275268555,,,,,,,,,,,,,,,,2779096485
-0.06857637329101562,0.013038653564453124,9.824022456359863,-0.0007622566198667908,0.008207855765315094,-0.004077366179917908,29.899999618530273,63349,,,,-0.06220703199505806,0.11005859076976776,10.113428115844727,-0.03355584293603897,0.0050600082613527775,-0.009853700175881386,39.11823654174805,,,,,,,,,,,,,,,,2779096485
-0.06859585037231446,0.012015003967285156,9.82888914718628,-0.0004988367003546143,0.007243032456426239,-0.0015391073624069214,29.899999618530273,63350,,,,-0.11245117336511612,0.095703125,10.070361137390137,-0.041545331478118896,0.003195794764906168,-0.006125273182988167,39.11823654174805,,,,,,,,,,,,,,,,2779096485
-0.06951314239501953,0.009340886688232422,9.828013613128661,2.6292057681121827e-05,0.006615891313536072,-0.001538727861954193,29.899999618530273,63351,,,,-0.01674804650247097,0.14116211235523224,10.12060546875,-0.037017956376075745,0.0055926404893398285,-0.014647392556071281,39.02411651611328,,,,,,,,,,,,,,,,2779096485
-0.07315255279541015,0.011818513488769531,9.828420351409912,-0.0026635605459381104,0.006908705873377991,-0.001529040613555603,30.0,63352,18.899999618530273,-20.549999237060547,-72.30000305175781,-0.014355468563735485,0.15312500298023224,10.079931259155273,-0.03728426992893219,0.0018642136128619313,-0.012250546365976334,39.11823654174805,,,,,,,,,,,,,,,,2779096485
-0.06865678634643554,0.0047727073669433595,9.834322206115722,-0.00016084827083267213,0.008466275599915009,-0.0008127634695930481,30.100000381469727,63353,,,,-0.0478515625,0.107666015625,9.996191024780273,-0.03834953531622887,0.004527375567704439,-0.0055926404893398285,39.11823654174805,,,,,,,,,,,,,,,,2779096485
-0.06860149536132812,0.00726016616821289,9.8288352394104,-5.4508249236602786e-05,0.008938334215692902,-0.0021714150377763366,30.100000381469727,63354,,,,-0.02871093712747097,0.09809570014476776,10.115819931030273,-0.03728426992893219,0.005858956836163998,-0.011717913672327995,39.21235275268555,,,,,,,,,,,,,,,,2779096485
-0.06591335906982422,0.008258058166503907,9.828328087615967,-0.00021870544511703492,0.007063988137570649,-0.002163805055013733,30.200000762939453,63355,,,,-0.11484374850988388,0.09091796725988388,10.046435356140137,-0.037550587207078934,0.004527375567704439,-0.008788435719907284,39.11823654174805,,,,,,,,,,,,,,,,2779096485
-0.06822047729492187,0.004978431701660156,9.827750803375244,-0.001270853805549469,0.007064074690305481,-0.0009832723572135926,30.200000762939453,63356,18.600000381469727,-21.149999618530273,-71.4000015258789,-0.083740234375,0.07656250149011612,10.087109565734863,-0.036751639097929,0.0055926404893398285,-0.006657905410975218,39.11823654174805,,,,,,,,,,,,,,,,2779096485
-0.06680365982055664,0.010230140686035156,9.831225649261475,-0.0015323029858685302,0.00714362331151947,-0.002159976760973053,30.200000762939453,63357,,,,-0.11005859076976776,0.09809570014476776,10.051220893859863,-0.03781690448522568,0.002396845957264304,-0.007989486679434776,39.11823654174805,,,,,,,,,,,,,,,,2779096485
-0.07348257904052734,0.008491558837890625,9.82977615814209,-0.0012758139430456544,0.009024540739586334,-0.0024391692519328306,30.200000762939453,63358,,,,-0.09331054985523224,0.107666015625,10.154101371765137,-0.037017956376075745,0.0055926404893398285,-0.012250546365976334,39.11823654174805,,,,,,,,,,,,,,,,2779096485
-0.06966581878662109,0.005560800170898437,9.828084867095948,-0.0006578540479504394,0.0062546601457601925,-0.0013448164464154053,30.200000762939453,63359,,,,-0.11005859076976776,0.15312500298023224,10.060791015625,-0.03728426992893219,0.0050600082613527775,-0.010386332869529724,39.11823654174805,,,,,,,,,,,,,,,,2779096485
-0.06845341720581054,0.007079713439941406,9.828090960693359,0.00021118201508926393,0.007673439233041535,-0.003345229911772919,30.200000762939453,63360,18.899999618530273,-21.149999618530273,-71.8499984741211,-0.07656250149011612,0.12202148139476776,10.0966796875,-0.03621900454163551,0.0050600082613527775,-0.012783179059624672,39.02411651611328,,,,,,,,,,,,,,,,2779096485
-0.06618981399536132,0.0018777252197265625,9.824280219268799,-0.0036264064577311707,0.007493422860394745,-0.0029690051471629336,30.200000762939453,63361,,,,-0.09091796725988388,0.06220703199505806,10.137353897094727,-0.037550587207078934,0.004261059686541557,-0.013049494475126266,39.11823654174805,,,,,,,,,,,,,,,,2779096485
-0.07132092208862305,0.0021377685546875,9.824808792114258,-0.000781977327603302,0.006914365090655517,-0.0008970924649308777,30.100000381469727,63362,,,,-0.10288085788488388,0.11484374850988388,10.118212699890137,-0.035153742879629135,0.0037284272257238626,-0.007989486679434776,39.11823654174805,,,,,,,,,,,,,,,,2779096485
-0.06717495803833008,0.003911603546142578,9.827368103027343,-0.0007106112687823487,0.007415538714850616,-0.002168372376251831,30.0,63363,,,,-0.05502929538488388,0.11005859076976776,10.046435356140137,-0.03781690448522568,0.004261059686541557,-0.006391589529812336,39.11823654174805,,,,,,,,,,,,,,,,2779096485
-0.06937661590576172,0.004866354370117188,9.826577243804932,-0.0014096977080265808,0.007778827174554443,-0.0015332683817570495,30.0,63364,18.899999618530273,-21.149999618530273,-71.69999694824219,-0.08613280951976776,0.05742187425494194,10.163671493530273,-0.03648532181978226,0.0055926404893398285,-0.010652649216353893,39.11823654174805,,,,,,,,,,,,,,,,2779096485
-0.07183850402832032,0.00782530059814453,9.82782325363159,-0.0011640144412524414,0.008193807590661469,-0.002352010647956238,30.0,63365,,,,-0.09091796725988388,0.11005859076976776,10.091894149780273,-0.037017956376075745,0.0037284272257238626,-0.015978973358869553,39.11823654174805,,,,,,,,,,,,,,,,2779096485
-0.07013057708740233,0.005171707153320312,9.827329933929443,-0.00030261499258605956,0.008616031804883729,-0.003444159687686768,29.899999618530273,63366,,,,-0.083740234375,0.12202148139476776,10.003369331359863,-0.03968111798167229,0.006657905410975218,-0.012516862712800503,39.11823654174805,,,,,,,,,,,,,,,,2779096485
-0.07173898773193359,0.009893048858642577,9.828788808441162,-0.0008284960936245728,0.009089621738277893,-0.00036481311941741944,29.899999618530273,63367,,,,-0.10527344048023224,0.16030272841453552,10.058398246765137,-0.03728426992893219,0.003994743339717388,-0.011451597325503826,39.11823654174805,,,,,,,,,,,,,,,,2779096485
-0.07610469512939452,0.009835926055908203,9.83152939453125,-0.00011137339602172852,0.007847363624736634,-0.0020823123262173463,29.899999618530273,63368,18.600000381469727,-20.700000762939453,-71.8499984741211,-0.11005859076976776,0.06699218600988388,10.046435356140137,-0.036751639097929,0.006657905410975218,-0.010386332869529724,39.21235275268555,,,,,,,,,,,,,,,,2779096485
-0.07300611953735352,0.009379616546630859,9.828485661315918,-0.0007958923442033387,0.006699661045048828,-0.0019844344989268493,29.899999618530273,63369,,,,-0.04306640475988388,0.09331054985523224,10.103857040405273,-0.03542005643248558,0.004793691914528608,-0.009853700175881386,39.21235275268555,,,,,,,,,,,,,,,,2779096485
-0.06886572570800781,0.008714442443847656,9.831501805114746,-0.001668996385780182,0.006884970450325776,-0.0011669772079447938,29.899999618530273,63370,,,,-0.11245117336511612,0.09091796725988388,10.142138481140137,-0.034354791045188904,0.003195794764906168,-0.009853700175881386,39.21235275268555,,,,,,,,,,,,,,,,2779096485
-0.07221492385864257,0.008665058135986328,9.831419597625732,-0.0020177439860321047,0.0085969968611232,-0.0011713115025891114,30.0,63371,,,,-0.11723633110523224,0.08134765923023224,10.070361137390137,-0.038882169872522354,0.004793691914528608,-0.011185280978679657,39.11823654174805,,,,,,,,,,,,,,,,2779096485
-0.07264558792114258,0.008955046081542968,9.8274952835083,-0.0008601078155465699,0.007371010661730499,-0.0019842747092625426,30.0,63372,19.049999237060547,-20.25,-71.4000015258789,-0.10048828274011612,0.107666015625,10.108642578125,-0.03648532181978226,0.004793691914528608,-0.008788435719907284,39.11823654174805,,,,,,,,,,,,,,,,2779096485
-0.0738672981262207,0.013588086700439452,9.82794751815796,-0.0013189172049923707,0.008323377034706116,-0.0018067284185098267,30.0,63373,,,,-0.014355468563735485,0.12441406399011612,10.02490234375,-0.03648532181978226,0.004261059686541557,-0.009853700175881386,39.11823654174805,,,,,,,,,,,,,,,,2779096485
-0.07196706771850586,0.013245349884033203,9.828298442077637,-0.0008020908515979004,0.008938980032252807,-0.002263966542923279,30.0,63374,,,,-0.08134765923023224,0.131591796875,9.981836318969727,-0.03462110832333565,0.0050600082613527775,-0.012783179059624672,39.11823654174805,,,,,,,,,,,,,,,,2779096485
-0.07142103652954102,0.007984967803955079,9.825353365325928,-0.0028884911300604246,0.006511482083717041,-0.0027915786986584474,30.0,63375,18.600000381469727,-20.399999618530273,-71.0999984741211,-0.13876953721046448,0.10048828274011612,10.146924018859863,-0.040213748812675476,0.0037284272257238626,-0.010652649216353893,39.11823654174805,,,,,,,,,,,,,,,,2779096485
-0.07309890670776367,0.018768803405761716,9.826670853424073,-0.0009715744222058106,0.007147052131399384,-0.002075960687061157,30.0,63376,,,,-0.13398437201976776,0.09809570014476776,10.103857040405273,-0.037017956376075745,0.006924221757799387,-0.011984230019152164,39.11823654174805,,,,,,,,,,,,,,,,2779096485
-0.07284962997436523,0.013807867431640624,9.82545411529541,0.0007616640665283203,0.0077479345061218265,-0.003352893157756958,30.0,63377,,,,-0.07895507663488388,0.1435546875,10.137353897094727,-0.03728426992893219,0.007190538104623556,-0.009853700175881386,39.02411651611328,,,,,,,,,,,,,,,,2779096485
-0.06871461944580078,0.012903248596191406,9.827521676635742,-0.0016081831027061463,0.007373866901979981,-0.001714543098010254,29.899999618530273,63378,,,,-0.14594726264476776,0.16748046875,10.106249809265137,-0.037550587207078934,0.006125273182988167,-0.008255803026258945,39.11823654174805,,,,,,,,,,,,,,,,2779096485
-0.07459860458374024,0.014759328460693359,9.825289737701416,-0.0016103802105903627,0.008263688937184906,-0.0025327394161897276,29.899999618530273,63379,18.75,-20.850000381469727,-70.94999694824219,-0.12202148139476776,0.12441406399011612,10.103857040405273,-0.03621900454163551,0.0050600082613527775,-0.015446340665221214,39.11823654174805,,,,,,,,,,,,,,,,2779096485
-0.07111179580688476,0.01252922134399414,9.823993558502197,0.00030123680673141477,0.0053821553154244995,-0.001081609579788971,30.0,63380,,,,-0.03828125074505806,0.11484374850988388,10.053613662719727,-0.03621900454163551,0.003195794764906168,-0.009587383829057217,39.11823654174805,,,,,,,,,,,,,,,,2779096485
-0.07267923355102539,0.01882947769165039,9.826646591186524,-0.00021118867299194335,0.00692462491868454,-0.0019895144786712645,30.0,63381,,,,-0.009570312686264515,0.12441406399011612,10.082324028015137,-0.03781690448522568,0.0050600082613527775,-0.005858956836163998,39.02411651611328,,,,,,,,,,,,,,,,2779096485
-0.07094255828857422,0.015199488067626953,9.826441913604736,-0.0014329004988644408,0.007103529421583862,-0.001895331787367859,30.0,63382,,,,-0.02871093712747097,0.13398437201976776,10.103857040405273,-0.03808322176337242,0.006391589529812336,-0.01491370890289545,39.11823654174805,,,,,,,,,,,,,,,,2779096485
-0.07011016540527344,0.014205259704589843,9.822595956420898,-0.002024688178526764,0.007587712078141022,-0.0018026071767512511,30.0,63383,19.049999237060547,-20.700000762939453,-71.55000305175781,-0.03349609300494194,0.11005859076976776,10.103857040405273,-0.036751639097929,0.003994743339717388,-0.007456854451447725,39.11823654174805,,,,,,,,,,,,,,,,2779096485
-0.07345581207275391,0.01879923400878906,9.826660535430907,-0.0017140370974066163,0.007773713905296631,-0.0008035489322846985,30.200000762939453,63384,,,,-0.07656250149011612,0.11962890625,10.065576553344727,-0.037550587207078934,0.003195794764906168,-0.011451597325503826,39.21235275268555,,,,,,,,,,,,,,,,2779096485
-0.0705140625,0.01385231704711914,9.827216136932373,-0.0004879843189871216,0.00786953444065918,-0.0012605140826882934,30.200000762939453,63385,,,,-0.131591796875,0.07656250149011612,10.029687881469727,-0.03621900454163551,0.0010652649216353893,-0.008255803026258945,39.21235275268555,,,,,,,,,,,,,,,,2779096485
-0.06936259689331055,0.015678190612792967,9.826659712982178,-0.000662441342896576,0.007785005708240967,-0.0006256630884953308,30.200000762939453,63386,,,,-0.14116211235523224,0.12202148139476776,10.161279678344727,-0.03808322176337242,0.005326324608176947,-0.013315810821950436,39.11823654174805,,,,,,,,,,,,,,,,2779096485
-0.0727260009765625,0.013990077209472656,9.825270372772216,-0.0013939983735084534,0.007450239703615876,-0.0010779743649259948,30.100000381469727,63387,18.149999618530273,-20.549999237060547,-71.69999694824219,-0.10288085788488388,0.12919922173023224,10.02490234375,-0.038882169872522354,0.0034621108788996935,-0.009587383829057217,39.11823654174805,,,,,,,,,,,,,,,,2779096485
-0.06909918899536133,0.013570516204833984,9.828352536773682,-0.003154940395291748,0.00804536965042328,-0.0016187025889396669,30.0,63388,,,,-0.08613280951976776,0.10288085788488388,10.060791015625,-0.035153742879629135,0.005858956836163998,-0.012250546365976334,39.11823654174805,,,,,,,,,,,,,,,,2779096485
-0.07111688003540038,0.013886822509765624,9.819059576416015,-0.0016688365961158753,0.007050645700601044,-0.0027977106270262145,30.0,63389,,,,-0.03110351599752903,0.10288085788488388,10.139745712280273,-0.03834953531622887,0.006125273182988167,-0.013848443515598774,39.02411651611328,,,,,,,,,,,,,,,,2779096485
-0.07160182571411132,0.014338870239257812,9.829023430633544,-0.002567653457840729,0.00737555135135788,-0.001439538427835846,29.899999618530273,63390,,,,-0.08134765923023224,0.13876953721046448,10.122998237609863,-0.037550587207078934,0.0034621108788996935,-0.009321067482233047,39.21235275268555,,,,,,,,,,,,,,,,2779096485
-0.06943572006225586,0.007827543640136719,9.825389590454101,-0.0018118217140596009,0.008856481960151825,-0.001449645124103241,29.80000114440918,63391,18.75,-20.25,-71.25,-0.06459961086511612,0.15073242783546448,10.091894149780273,-0.03781690448522568,0.006924221757799387,-0.010120016522705555,39.11823654174805,,,,,,,,,,,,,,,,2779096485
-0.06846018371582031,0.007628884887695312,9.828622000885009,-0.0004885635565202331,0.007168610420275421,-0.0018096512377861022,29.80000114440918,63392,,,,-0.059814453125,0.12919922173023224,10.113428115844727,-0.0391484834253788,0.0026631623040884733,-0.008522119373083115,39.21235275268555,,,,,,,,,,,,,,,,2779096485
-0.06716363067626953,0.009177705383300781,9.836709924316406,-0.001884958774993286,0.007351895823137817,-0.0011714979238641357,29.899999618530273,63393,,,,-0.02631836012005806,0.13637694716453552,10.103857040405273,-0.035153742879629135,0.0055926404893398285,-0.009321067482233047,39.11823654174805,,,,,,,,,,,,,,,,2779096485
-0.06902131805419921,0.008295105743408204,9.82962269668579,-0.0015642476029244996,0.007812169951173096,-0.001712139595142975,30.200000762939453,63394,,,,-0.08134765923023224,0.09091796725988388,10.053613662719727,-0.03781690448522568,0.004261059686541557,-0.011717913672327995,39.21235275268555,,,,,,,,,,,,,,,,2779096485
-0.07104719619750977,0.007757224273681641,9.828642786407471,-0.0007747801348068238,0.008254847242426606,-0.003527270286834259,30.200000762939453,63395,17.700000762939453,-21.0,-71.4000015258789,0.014355468563735485,0.12919922173023224,10.122998237609863,-0.035153742879629135,0.0037284272257238626,-0.010918965563178062,39.11823654174805,,,,,,,,,,,,,,,,2779096485
-0.06634619140625,0.008330059814453126,9.8260506149292,-0.0014747187855940246,0.007004526408740539,-0.0018001837001759338,30.200000762939453,63396,,,,-0.05502929538488388,0.08134765923023224,10.060791015625,-0.03968111798167229,0.008255803026258945,-0.012516862712800503,39.11823654174805,,,,,,,,,,,,,,,,2779096485
-0.06813326034545898,0.006442577362060547,9.827778243255615,-0.0012585966067166139,0.007022376245824127,-0.0008994493624794006,30.0,63397,,,,-0.08134765923023224,0.10527344048023224,10.142138481140137,-0.03621900454163551,0.007190538104623556,-0.008788435719907284,39.11823654174805,,,,,,,,,,,,,,,,2779096485
-0.07083137817382812,0.0043786796569824215,9.83624067993164,-0.0008205132683119201,0.006475715830523071,-0.001985819342684174,30.0,63398,,,,-0.05263672024011612,0.09809570014476776,10.163671493530273,-0.036751639097929,0.005326324608176947,-0.006125273182988167,39.11823654174805,,,,,,,,,,,,,,,,2779096485
-0.06906621627807617,0.0064442222595214845,9.82801465988159,-0.0022039655239761355,0.007743540290353393,-0.0035237016509980772,30.100000381469727,63399,18.600000381469727,-21.149999618530273,-72.0,-0.11962890625,0.11245117336511612,9.979443550109863,-0.0391484834253788,0.003195794764906168,-0.007989486679434776,39.11823654174805,,,,,,,,,,,,,,,,2779096485
-0.07185491561889648,0.003533576202392578,9.826813174438476,-0.0011489675811968995,0.007883156509541321,0.00018617493262527467,30.100000381469727,63400,,,,-0.08852539211511612,0.12202148139476776,10.101465225219727,-0.03808322176337242,0.006125273182988167,-0.007989486679434776,39.11823654174805,,,,,,,,,,,,,,,,2779096485
-0.07197368469238281,0.0018789588928222656,9.829477571868896,-0.0009692042088519287,0.0061690994384266664,-0.0010763298629641723,30.100000381469727,63401,,,,-0.08134765923023224,0.10527344048023224,10.070361137390137,-0.03621900454163551,0.003994743339717388,-0.008522119373083115,39.11823654174805,,,,,,,,,,,,,,,,2779096485
-0.06827393646240235,0.006064288330078125,9.831100450134278,-0.0015019962128717042,0.005969135989352265,-0.001346374395642395,30.100000381469727,63402,17.850000381469727,-21.600000381469727,-71.0999984741211,-0.083740234375,0.083740234375,10.084716796875,-0.036751639097929,0.004261059686541557,-0.009587383829057217,39.11823654174805,,,,,,,,,,,,,,,,2779096485
-0.06839778976440429,0.00579172134399414,9.830954203796386,-0.00012815131077392579,0.008278016743751069,-0.0009983458488798524,30.0,63403,,,,-0.131591796875,0.11005859076976776,10.146924018859863,-0.036751639097929,0.0055926404893398285,-0.007190538104623556,39.11823654174805,,,,,,,,,,,,,,,,2779096485
-0.07037862014770507,0.007467647552490234,9.832573867034911,-0.0016081564710954284,0.007288758932028656,-0.0011708587652069092,30.0,63404,,,,-0.04067382961511612,0.16030272841453552,10.113428115844727,-0.03488742560148239,0.004527375567704439,-0.010918965563178062,39.21235275268555,,,,,,,,,,,,,,,,2779096485
-0.0711156837463379,0.006660713195800781,9.829153900909423,-0.0016939768366334533,0.0068373198408489995,-0.0015312377214398193,30.0,63405,,,,-0.08852539211511612,0.09809570014476776,10.063183784484863,-0.03542005643248558,0.0055926404893398285,-0.010918965563178062,39.11823654174805,,,,,,,,,,,,,,,,2779096485
-0.07177607269287109,0.005740430450439453,9.831437878417969,-0.000304152968105011,0.0088165878072966,-0.0009090633739485169,30.0,63406,18.0,-21.450000762939453,-71.25,-0.10288085788488388,0.12680664658546448,10.122998237609863,-0.03834953531622887,0.0034621108788996935,-0.011185280978679657,39.21235275268555,,,,,,,,,,,,,,,,2779096485
-0.07183439178466797,0.008033043670654296,9.829372036743164,-0.0021369271018968202,0.009173471364622803,-0.0009039501046907044,30.0,63407,,,,-0.06938476860523224,0.13637694716453552,10.094286918640137,-0.036751639097929,0.0055926404893398285,-0.009853700175881386,39.21235275268555,,,,,,,,,,,,,,,,2779096485
-0.06992403030395508,0.007922573852539062,9.832694318389892,-0.00012419651658233642,0.0071830913586032104,-0.0032586239137187196,30.0,63408,,,,-0.07895507663488388,0.14833983778953552,10.137353897094727,-0.0391484834253788,0.0037284272257238626,-0.011717913672327995,39.11823654174805,,,,,,,,,,,,,,,,2779096485
-0.06649640045166015,0.007923844909667969,9.829483029937744,-0.0008427639790666198,0.0055352870770516965,-0.001984727446644745,29.899999618530273,63409,,,,-0.04306640475988388,0.14833983778953552,10.127782821655273,-0.035686373710632324,0.004793691914528608,-0.011717913672327995,39.21235275268555,,,,,,,,,,,,,,,,2779096485
-0.07400808639526367,0.0023557174682617187,9.82652681274414,-0.0006740327514614869,0.007680569846811218,-0.00280793050763916,29.899999618530273,63410,18.75,-21.0,-71.69999694824219,0.014355468563735485,0.131591796875,10.137353897094727,-0.037017956376075745,0.0026631623040884733,-0.010918965563178062,39.02411651611328,,,,,,,,,,,,,,,,2779096485
-0.07411702346801757,0.009523507690429688,9.832156436920165,-0.00023708791441497804,0.007157418485871277,-0.001086895954516449,29.899999618530273,63411,,,,-0.06459961086511612,0.13398437201976776,10.139745712280273,-0.03861585259437561,0.006657905410975218,-0.007456854451447725,39.11823654174805,,,,,,,,,,,,,,,,2779096485
-0.07271732788085937,0.007339532470703125,9.828485063171387,-0.0019817913115631105,0.007496944890912171,-0.003165000486240387,29.899999618530273,63412,,,,-0.04545898362994194,0.10048828274011612,10.060791015625,-0.03808322176337242,0.004793691914528608,-0.0055926404893398285,39.21235275268555,,,,,,,,,,,,,,,,2779096485
-0.07238180618286133,0.008649506378173829,9.828135597229004,-0.002330825201630249,0.007330164428792114,-0.0016236094632144165,29.899999618530273,63413,,,,-0.09091796725988388,0.11962890625,10.130175590515137,-0.03621900454163551,0.006125273182988167,-0.007456854451447725,39.11823654174805,,,,,,,,,,,,,,,,2779096485
-0.06663831024169922,0.011493048095703125,9.828227337646483,-0.0008509398835569763,0.008575525124981994,-0.0029915820951489256,29.899999618530273,63414,18.299999237060547,-20.549999237060547,-71.69999694824219,-0.08134765923023224,0.12919922173023224,10.137353897094727,-0.036751639097929,0.0013315811520442367,-0.011984230019152164,39.21235275268555,,,,,,,,,,,,,,,,2779096485
-0.07107710342407227,0.010777816772460936,9.828026286315918,-0.0017220998175514221,0.008129392382237853,-0.0026247316575115968,29.899999618530273,63415,,,,-0.035888671875,0.07177734375,10.12060546875,-0.03861585259437561,0.006125273182988167,-0.008255803026258945,39.11823654174805,,,,,,,,,,,,,,,,2779096485
-0.0726865982055664,0.010734226989746094,9.824972235107422,-0.002429229003232422,0.007676528499884796,-0.0009914549196066284,29.899999618530273,63416,,,,-0.10527344048023224,0.12919922173023224,10.16845703125,-0.03781690448522568,0.004261059686541557,-0.008522119373083115,39.02411651611328,,,,,,,,,,,,,,,,2779096485
-0.07165790176391601,0.015131897735595702,9.82119685897827,-0.0026175344647151183,0.007460133346997528,-0.0022593060110476684,29.899999618530273,63417,,,,-0.07895507663488388,0.10048828274011612,9.986620903015137,-0.03542005643248558,0.0021305298432707787,-0.012250546365976334,39.11823654174805,,,,,,,,,,,,,,,,2779096485
-0.07205963058471679,0.0096911376953125,9.834414170837402,-0.0005108675304963684,0.006060222755909729,-0.00044951495730529784,30.0,63418,18.600000381469727,-20.25,-71.69999694824219,-0.05742187425494194,0.11723633110523224,10.056005477905273,-0.03542005643248558,0.004793691914528608,-0.006125273182988167,39.11823654174805,,,,,,,,,,,,,,,,2779096485
-0.07138997039794921,0.014732262420654296,9.8297446434021,-0.0011970442964451598,0.007419413614210052,-0.0018089854475181579,30.0,63419,,,,-0.11245117336511612,0.10288085788488388,10.063183784484863,-0.03968111798167229,0.004261059686541557,-0.010918965563178062,39.21235275268555,,,,,,,,,,,,,,,,2779096485
-0.07108043060302734,0.011608377838134766,9.82589203186035,-0.000852797438404541,0.00895162338944107,-0.0009099289012968445,30.0,63420,,,,-0.03110351599752903,0.107666015625,10.113428115844727,-0.03728426992893219,0.004793691914528608,-0.011185280978679657,39.11823654174805,,,,,,,,,,,,,,,,2779096485
-0.07337569808959961,0.013333052825927734,9.822935777282714,-0.0013665678144691468,0.007597472563469086,-0.0029859029041633604,30.100000381469727,63421,,,,-0.05263672024011612,0.09091796725988388,10.089502334594727,-0.035686373710632324,0.006391589529812336,-0.007456854451447725,39.21235275268555,,,,,,,,,,,,,,,,2779096485
-0.07166642532348633,0.014252924346923828,9.827685942077636,-0.0009949569764160157,0.006053005589405212,0.0010954447015568542,30.100000381469727,63422,18.600000381469727,-21.299999237060547,-70.6500015258789,-0.0478515625,0.12202148139476776,10.0966796875,-0.03355584293603897,0.0026631623040884733,-0.013315810821950436,39.02411651611328,,,,,,,,,,,,,,,,2779096485
-0.0708238639831543,0.014228176116943358,9.824967337799071,-0.0017337111998243714,0.007735644017775573,-0.0011674432611323547,30.100000381469727,63423,,,,-0.08613280951976776,0.1435546875,10.0966796875,-0.03861585259437561,0.0050600082613527775,-0.013315810821950436,39.02411651611328,,,,,,,,,,,,,,,,2779096485
-0.07262528839111328,0.014100098419189452,9.828209804534913,-0.001379876961925354,0.005860632149385376,-0.00025644243750411986,30.100000381469727,63424,,,,-0.11962890625,0.14116211235523224,10.115819931030273,-0.037550587207078934,0.005858956836163998,-0.009321067482233047,39.11823654174805,,,,,,,,,,,,,,,,2779096485
-0.07363443298339843,0.012677598571777342,9.827115648651123,-0.002651183504857025,0.007830858683994293,-0.0016215055659677124,30.0,63425,,,,-0.059814453125,0.15073242783546448,10.056005477905273,-0.03834953531622887,0.004261059686541557,-0.008255803026258945,39.11823654174805,,,,,,,,,,,,,,,,2779096485
-0.07203413467407227,0.014322682952880859,9.825696550750733,-0.0009104215860951233,0.007206600412964325,-0.0003579221901441956,29.899999618530273,63426,19.049999237060547,-21.450000762939453,-71.69999694824219,-0.05502929538488388,0.15312500298023224,10.178027153015137,-0.037017956376075745,0.005326324608176947,-0.006924221757799387,39.02411651611328,,,,,,,,,,,,,,,,2779096485
-0.07272753372192382,0.015303453063964844,9.824723743438721,-0.0025695576180070497,0.008002865599717713,-0.0014417222199147033,29.899999618530273,63427,,,,-0.11484374850988388,0.07416991889476776,9.993799209594727,-0.03621900454163551,0.002929478418081999,-0.011717913672327995,39.21235275268555,,,,,,,,,,,,,,,,2779096485
-0.06557357559204101,0.013013905334472655,9.827389449310303,-0.0014944927565519715,0.007053095808787079,-0.0025266341194326784,30.0,63428,,,,-0.083740234375,0.15312500298023224,10.058398246765137,-0.03648532181978226,0.004527375567704439,-0.010918965563178062,39.02411651611328,,,,,,,,,,,,,,,,2779096485
-0.0721278564453125,0.010051631927490234,9.82684065170288,0.00038726356725250245,0.006710819689939575,-0.0005349691381959534,30.0,63429,,,,-0.10048828274011612,0.08613280951976776,10.149316787719727,-0.03728426992893219,0.003994743339717388,-0.013315810821950436,39.11823654174805,,,,,,,,,,,,,,,,2779096485
-0.07034007720947265,0.013187703704833983,9.825607165527343,-0.0006583134432353211,0.006517587380474091,-0.0020702548644648744,30.0,63430,18.0,-21.0,-70.94999694824219,-0.05742187425494194,0.13876953721046448,10.12060546875,-0.03595269098877907,0.004527375567704439,-0.013049494475126266,39.11823654174805,,,,,,,,,,,,,,,,2779096485
-0.06767246475219726,0.012917865753173828,9.83011508178711,-0.0018801317955506897,0.006698762228187103,-0.0017043831385214234,30.0,63431,,,,-0.06459961086511612,0.083740234375,10.060791015625,-0.03648532181978226,0.0034621108788996935,-0.007456854451447725,39.02411651611328,,,,,,,,,,,,,,,,2779096485
-0.07332758483886719,0.013596049499511719,9.825022965240478,-0.0012749284419892883,0.008499445271063995,-0.0008977316235881043,30.0,63432,,,,-0.06699218600988388,0.131591796875,10.106249809265137,-0.035153742879629135,0.002396845957264304,-0.010918965563178062,39.21235275268555,,,,,,,,,,,,,,,,2779096485
-0.0659299575805664,0.01282410659790039,9.829558209228516,-0.0004481101398399353,0.007060925502338104,-0.001715222204083557,30.0,63433,,,,-0.10048828274011612,0.12919922173023224,10.065576553344727,-0.03595269098877907,0.0026631623040884733,-0.008522119373083115,39.11823654174805,,,,,,,,,,,,,,,,2779096485
-0.06874669494628906,0.012024088287353515,9.825988706970215,-0.001647524649638977,0.008179506415706025,-0.0017126855431626891,30.100000381469727,63434,17.700000762939453,-21.0,-71.0999984741211,-0.09331054985523224,0.10048828274011612,10.07275390625,-0.03834953531622887,0.002396845957264304,-0.010386332869529724,39.11823654174805,,,,,,,,,,,,,,,,2779096485
-0.07300264282226562,0.010146063995361328,9.826813735198975,-0.001622357777510681,0.00796188620872574,-0.0008040749065963745,30.200000762939453,63435,,,,-0.09091796725988388,0.11962890625,10.012939453125,-0.03621900454163551,0.004261059686541557,-0.010652649216353893,39.21235275268555,,,,,,,,,,,,,,,,2779096485
-0.07021738281249999,0.0041879837036132815,9.837140214538573,-0.002319966162360077,0.008126130009924926,-0.0025229456413482666,30.200000762939453,63436,,,,-0.06699218600988388,0.17465820908546448,10.091894149780273,-0.035686373710632324,0.005858956836163998,-0.006125273182988167,39.11823654174805,,,,,,,,,,,,,,,,2779096485
-0.06840743484497071,0.007852852630615234,9.83312075805664,-0.0007645535962911988,0.007928117326335601,-0.0018045179948202514,30.200000762939453,63437,,,,-0.059814453125,0.12919922173023224,10.108642578125,-0.03621900454163551,0.0050600082613527775,-0.011717913672327995,39.11823654174805,,,,,,,,,,,,,,,,2779096485
-0.06445063400268554,0.0031233985900878903,9.83223539199829,-0.001002859906896515,0.00925664854279709,-0.001813819084863434,29.899999618530273,63438,18.899999618530273,-20.850000381469727,-71.69999694824219,-0.0071777342818677425,0.11245117336511612,10.053613662719727,-0.03595269098877907,0.007456854451447725,-0.012516862712800503,39.11823654174805,,,,,,,,,,,,,,,,2779096485
-0.0702378318786621,0.005491191101074219,9.831521618652344,-0.001435230764802246,0.008080736429456482,-0.002985530061613312,29.899999618530273,63439,,,,-0.05024414137005806,0.10048828274011612,10.063183784484863,-0.03728426992893219,0.0013315811520442367,-0.009587383829057217,39.11823654174805,,,,,,,,,,,,,,,,2779096485
-0.06851704483032227,0.005729065704345703,9.83151866531372,0.0007473695494755554,0.007198344613641815,-0.0015409848909625245,29.899999618530273,63440,,,,-0.11484374850988388,0.11245117336511612,10.113428115844727,-0.033822160214185715,0.003195794764906168,-0.010652649216353893,39.02411651611328,,,,,,,,,,,,,,,,2779096485
-0.06712826538085938,0.009788560485839844,9.828430033874511,-0.0019092268302598572,0.007213131815492859,-0.0018071678400866699,29.899999618530273,63441,,,,-0.05263672024011612,0.09091796725988388,10.106249809265137,-0.03781690448522568,0.0034621108788996935,-0.006125273182988167,39.11823654174805,,,,,,,,,,,,,,,,2779096485
-0.0642575080871582,0.008036483001708984,9.822085926055907,-0.0006119810984890747,0.00781391432167511,-0.0030825956247769164,29.899999618530273,63442,19.049999237060547,-20.25,-71.55000305175781,-0.06459961086511612,0.13637694716453552,10.113428115844727,-0.037017956376075745,0.007723170332610607,-0.012516862712800503,39.21235275268555,,,,,,,,,,,,,,,,2779096485
-0.0668798484802246,0.009691773223876952,9.821840238189697,6.319015433059692e-05,0.00868227127864151,-0.0023653131375097657,29.899999618530273,63443,,,,-0.02631836012005806,0.14594726264476776,10.125391006469727,-0.03861585259437561,0.0050600082613527775,-0.011185280978679657,39.11823654174805,,,,,,,,,,,,,,,,2779096485
-0.0686479263305664,0.0037298423767089845,9.820784475708008,-0.0018000372263169862,0.008244068097988586,-0.001718311470926819,30.200000762939453,63444,,,,-0.095703125,0.09091796725988388,10.180419921875,-0.03834953531622887,0.0018642136128619313,-0.010918965563178062,39.11823654174805,,,,,,,,,,,,,,,,2779096485
-0.0707461799621582,0.006619179534912109,9.831737698364257,-0.0007352987719177246,0.0071931115021357725,-0.001988635635517578,30.200000762939453,63445,,,,-0.02153320237994194,0.155517578125,10.14453125,-0.03621900454163551,0.0050600082613527775,-0.008255803026258945,39.11823654174805,,,,,,,,,,,,,,,,2779096485
-0.06722004318237304,0.0052050537109375,9.83198761062622,0.0018806777435704041,0.007550514375870972,-0.0024518059512184144,30.200000762939453,63446,17.700000762939453,-20.850000381469727,-72.1500015258789,-0.07895507663488388,0.11245117336511612,10.089502334594727,-0.03834953531622887,0.0037284272257238626,-0.009054751135408878,39.02411651611328,,,,,,,,,,,,,,,,2779096485
-0.07122263946533203,0.010039893341064452,9.829768868255615,-0.0009102351648200989,0.0072028054084370425,-0.0008107261513731384,30.200000762939453,63447,,,,-0.04067382961511612,0.10048828274011612,10.12060546875,-0.036751639097929,0.004261059686541557,-0.009321067482233047,39.02411651611328,,,,,,,,,,,,,,,,2779096485
-0.06574042053222656,0.00724891357421875,9.829886665344238,-0.0017787785430615234,0.006027226190230408,-0.0018903516761636352,30.200000762939453,63448,,,,-0.0478515625,0.10288085788488388,10.070361137390137,-0.03621900454163551,0.002929478418081999,-0.007456854451447725,39.21235275268555,,,,,,,,,,,,,,,,2779096485
-0.06721058502197265,0.010333769226074218,9.829017673492432,-0.0015247862137434387,0.008635319748946076,-0.000994750581432953,30.200000762939453,63449,,,,-0.09091796725988388,0.13876953721046448,10.122998237609863,-0.035686373710632324,0.004527375567704439,-0.009054751135408878,39.11823654174805,,,,,,,,,,,,,,,,2779096485
-0.06980354156494141,0.013122842407226562,9.826935345458985,-0.0011868843369563294,0.007347261922872925,-0.0018078536040626527,30.200000762939453,63450,19.049999237060547,-21.149999618530273,-71.8499984741211,-0.01674804650247097,0.14116211235523224,10.075146675109863,-0.037550587207078934,0.006924221757799387,-0.010120016522705555,39.11823654174805,,,,,,,,,,,,,,,,2779096485
-0.07146238327026366,0.003495556640625,9.828904287719727,-0.0010225606409249878,0.007334465433923035,-0.001265913641761322,30.100000381469727,63451,,,,-0.07416991889476776,0.12919922173023224,10.075146675109863,-0.03542005643248558,0.0037284272257238626,-0.009054751135408878,39.11823654174805,,,,,,,,,,,,,,,,2779096485
-0.07549526062011719,0.0067087890625,9.828607122039795,-0.001981112205489807,0.007229463650765534,-0.0029829334795683287,30.100000381469727,63452,,,,-0.03828125074505806,0.14833983778953552,10.039258003234863,-0.037550587207078934,0.0050600082613527775,-0.009853700175881386,39.11823654174805,,,,,,,,,,,,,,,,2779096485
-0.06980395278930664,0.012146408843994141,9.827191874694824,-0.0009933590797729492,0.007823534991046906,-0.0027140207903456116,30.100000381469727,63453,19.049999237060547,-21.299999237060547,-71.0999984741211,-0.11962890625,0.107666015625,10.044042587280273,-0.038882169872522354,0.004793691914528608,-0.009853700175881386,39.11823654174805,,,,,,,,,,,,,,,,2779096485
-0.0698346076965332,0.010065763092041016,9.829735820770264,-0.0016949954957434083,0.007449800282039032,-0.003344663990045166,30.0,63454,,,,-0.07895507663488388,0.12202148139476776,10.07275390625,-0.036751639097929,0.006125273182988167,-0.009321067482233047,39.21235275268555,,,,,,,,,,,,,,,,2779096485
-0.07136241836547852,0.009116545104980469,9.824385679626465,-0.00012464259606185914,0.0071921860536633304,-0.0021718810909638975,30.0,63455,,,,-0.08613280951976776,0.09331054985523224,10.130175590515137,-0.03728426992893219,0.006391589529812336,-0.014381076209247112,39.11823654174805,,,,,,,,,,,,,,,,2779096485
-0.07203058319091797,0.005911312866210937,9.82677470626831,-0.0026571023803390503,0.008178314651126404,-0.001894852418374939,30.0,63456,,,,-0.07895507663488388,0.15312500298023224,10.056005477905273,-0.03462110832333565,0.006657905410975218,-0.009587383829057217,39.11823654174805,,,,,,,,,,,,,,,,2779096485
-0.07643386154174804,0.009740036010742187,9.833167525482178,-3.9947416076660155e-05,0.007920201080049745,-0.0009068329765509033,30.0,63457,18.450000762939453,-20.700000762939453,-72.0,-0.07177734375,0.095703125,10.063183784484863,-0.034354791045188904,0.003994743339717388,-0.009587383829057217,39.11823654174805,,,,,,,,,,,,,,,,2779096485
-0.06938517684936524,0.003681392669677734,9.826071101379394,-0.00020937772346313476,0.006296225432187958,-0.002077878163032837,30.0,63458,,,,-0.09809570014476776,0.13637694716453552,10.034472465515137,-0.03834953531622887,0.004261059686541557,-0.007456854451447725,39.11823654174805,,,,,,,,,,,,,,,,2779096485
-0.06858059768676758,0.008212150573730469,9.827433525085448,-0.001608163128998108,0.007626940440728302,-0.003617278473157654,30.0,63459,,,,-0.10288085788488388,0.11723633110523224,10.017724990844727,-0.038882169872522354,0.004793691914528608,-0.008522119373083115,39.11823654174805,,,,,,,,,,,,,,,,2779096485
-0.0697089599609375,0.007921975708007812,9.832236887359619,-0.0006029995877745056,0.007101099287105866,-0.0010790396293547059,30.200000762939453,63460,,,,-0.0478515625,0.10288085788488388,10.091894149780273,-0.03834953531622887,0.0037284272257238626,-0.011185280978679657,39.11823654174805,,,,,,,,,,,,,,,,2779096485
-0.07008665084838867,0.007209660339355469,9.827597117614745,-0.0009469668139025879,0.00736334741574646,-0.002889589684002533,30.200000762939453,63461,19.049999237060547,-21.450000762939453,-71.0999984741211,-0.07177734375,0.16030272841453552,10.067968368530273,-0.03595269098877907,0.006657905410975218,-0.012516862712800503,39.21235275268555,,,,,,,,,,,,,,,,2779096485
-0.07123591079711913,0.011186573791503906,9.832170119476318,-0.0019091402775250244,0.008093373128742065,-0.0012586498699380493,30.200000762939453,63462,,,,-0.03349609300494194,0.11245117336511612,10.12060546875,-0.03808322176337242,0.0050600082613527775,-0.007456854451447725,39.11823654174805,,,,,,,,,,,,,,,,2779096485
-0.07114873123168945,0.006360182952880859,9.827959929656982,-1.9494339045410155e-05,0.0061451842520021055,-0.0018955182086428833,30.100000381469727,63463,,,,-0.06459961086511612,0.07895507663488388,10.137353897094727,-0.03728426992893219,0.004527375567704439,-0.007989486679434776,39.11823654174805,,,,,,,,,,,,,,,,2779096485
-0.06998014373779296,0.0049575340270996094,9.827447095489502,-0.0013449496044689942,0.006919738018117828,-0.002438376961513977,30.0,63464,,,,-0.02631836012005806,0.12202148139476776,10.077539443969727,-0.03488742560148239,0.006125273182988167,-0.011984230019152164,39.11823654174805,,,,,,,,,,,,,,,,2779096485
-0.06584300231933593,0.005428834533691406,9.827974285125732,-0.0021325462019337466,0.00790074003051773,-0.002982467426380768,30.0,63465,18.450000762939453,-21.299999237060547,-71.55000305175781,-0.08134765923023224,0.095703125,10.134961128234863,-0.03488742560148239,0.003994743339717388,-0.011185280978679657,39.02411651611328,,,,,,,,,,,,,,,,2779096485
-0.07117733001708984,0.008955905914306641,9.82652737350464,-0.000664605161267395,0.00770794048472641,-0.0016298079706089782,30.0,63466,,,,-0.10048828274011612,0.10527344048023224,10.063183784484863,-0.03648532181978226,0.006391589529812336,-0.011984230019152164,39.21235275268555,,,,,,,,,,,,,,,,2779096485
-0.06641486587524414,0.006405193328857421,9.82825541305542,-0.002419049070035553,0.007773094720347443,-0.0022588066683467104,29.899999618530273,63467,,,,-0.13398437201976776,0.15073242783546448,10.149316787719727,-0.036751639097929,0.004793691914528608,-0.011717913672327995,39.02411651611328,,,,,,,,,,,,,,,,2779096485
-0.06540912322998046,0.008592121887207031,9.829008925628662,-0.0015485948737251282,0.008317990791438447,-0.0015392338625578308,29.899999618530273,63468,,,,-0.02153320237994194,0.09331054985523224,10.063183784484863,-0.03621900454163551,0.005858956836163998,-0.010918965563178062,39.11823654174805,,,,,,,,,,,,,,,,2779096485
-0.06897903671264648,0.006231170654296875,9.828108531188965,0.0006481534837464905,0.008238681854720917,-0.00371875156789505,30.0,63469,18.299999237060547,-20.549999237060547,-71.55000305175781,-0.08134765923023224,0.11484374850988388,10.113428115844727,-0.03648532181978226,0.0034621108788996935,-0.008522119373083115,39.11823654174805,,,,,,,,,,,,,,,,2779096485
-0.07291430435180664,0.006810137176513672,9.831048486328125,1.3409015996398926e-05,0.00692353968054779,-0.0019857394478520205,30.200000762939453,63470,,,,-0.083740234375,0.09091796725988388,10.070361137390137,-0.03808322176337242,0.0055926404893398285,-0.009054751135408878,39.11823654174805,,,,,,,,,,,,,,,,2779096485
-0.06932700729370117,0.0053335800170898435,9.83165440673828,-0.0009487311581126404,0.007990994559240265,-0.0028917867918867492,30.200000762939453,63471,,,,-0.02392578125,0.09091796725988388,10.036865234375,-0.037017956376075745,0.0034621108788996935,-0.009853700175881386,39.02411651611328,,,,,,,,,,,,,,,,2779096485
-0.06289071044921875,0.009919927978515625,9.829438692474366,-0.0004276836944194031,0.006745647178855743,-0.000716143985908966,30.200000762939453,63472,,,,-0.16508789360523224,0.14116211235523224,10.07275390625,-0.03595269098877907,0.0026631623040884733,-0.010386332869529724,39.11823654174805,,,,,,,,,,,,,,,,2779096485
-0.06812574615478516,0.0054868919372558595,9.83049987564087,-0.0012329104181793213,0.006801799930054169,-0.0004436826345581055,30.100000381469727,63473,18.600000381469727,-21.0,-71.4000015258789,-0.13637694716453552,0.20576171576976776,10.0966796875,-0.03728426992893219,0.0010652649216353893,-0.004527375567704439,39.11823654174805,,,,,,,,,,,,,,,,2779096485
-0.06362713851928711,0.004689714813232422,9.811824195861815,-0.00018345850833206178,0.006155444080031128,-0.0027997279715380858,30.100000381469727,63474,,,,-0.08852539211511612,0.13637694716453552,10.115819931030273,-0.03542005643248558,0.003195794764906168,-0.010120016522705555,39.11823654174805,,,,,,,,,,,,,,,,2779096485
-0.06357853927612304,-0.0028928512573242185,9.827228623199463,-0.00149618386383255,0.007763580577418518,-0.003344197936857605,30.100000381469727,63475,,,,-0.014355468563735485,0.09809570014476776,10.053613662719727,-0.0391484834253788,0.006391589529812336,-0.010120016522705555,39.21235275268555,,,,,,,,,,,,,,,,2779096485
-0.06210725326538086,-0.0028715049743652343,9.836744242858886,-0.00014720622824249268,0.008058352560648194,-0.0016332967116130066,30.0,63476,,,,-0.03828125074505806,0.12680664658546448,10.084716796875,-0.03621900454163551,0.004527375567704439,-0.010386332869529724,39.02411651611328,,,,,,,,,,,,,,,,2779096485
-0.06489400863647461,-0.0015328575134277342,9.831679865264892,-0.00145886631931427,0.007590901213524475,-0.0027143203959661866,29.899999618530273,63477,18.600000381469727,-21.149999618530273,-72.30000305175781,-0.02631836012005806,0.09809570014476776,10.111035346984863,-0.03648532181978226,0.007190538104623556,-0.007989486679434776,39.11823654174805,,,,,,,,,,,,,,,,2779096485
-0.066262451171875,0.006156253051757812,9.837003650665283,-0.0010499778841589356,0.007354266036491699,-0.0008075902792111207,29.899999618530273,63478,,,,-0.02392578125,0.10288085788488388,10.127782821655273,-0.03595269098877907,0.002929478418081999,-0.010918965563178062,39.02411651611328,,,,,,,,,,,,,,,,2779096485
-0.0679122833251953,0.002918721008300781,9.832432144165038,-0.000921034282966156,0.006876741282613983,-0.0019800402831584166,30.0,63479,,,,-0.07416991889476776,0.12680664658546448,9.948339462280273,-0.03542005643248558,0.0034621108788996935,-0.008255803026258945,39.11823654174805,,,,,,,,,,,,,,,,2779096485
-0.06360167999267578,0.005012525939941406,9.838703203582764,-0.0003996206346255493,0.0076773940272331235,-0.0027997412873434447,30.0,63480,,,,-0.10527344048023224,0.13637694716453552,10.134961128234863,-0.03648532181978226,0.0034621108788996935,-0.008788435719907284,39.11823654174805,,,,,,,,,,,,,,,,2779096485
-0.07191484222412109,0.006935859680175781,9.820938161468506,-0.0012717792540219116,0.007589922501830597,-0.0024341491933125305,30.0,63481,18.0,-20.850000381469727,-70.80000305175781,-0.07656250149011612,0.12919922173023224,10.029687881469727,-0.037017956376075745,0.002929478418081999,-0.009054751135408878,39.11823654174805,,,,,,,,,,,,,,,,2779096485
-0.06567836303710937,0.009661679077148436,9.835681302642822,-0.00024799355900390627,0.008633382299266357,-0.0022620690406596373,30.0,63482,,,,-0.107666015625,0.13637694716453552,10.0966796875,-0.03621900454163551,0.0050600082613527775,-0.010652649216353893,39.11823654174805,,,,,,,,,,,,,,,,2779096485
-0.06722714614868164,0.006721275329589844,9.82520610961914,-0.0011107312461088562,0.008827107293530121,-0.002530535650402832,29.899999618530273,63483,,,,-0.03110351599752903,0.07656250149011612,10.156494140625,-0.037017956376075745,0.007723170332610607,-0.008522119373083115,39.11823654174805,,,,,,,,,,,,,,,,2779096485
-0.07571866760253906,0.010667384338378907,9.836331747436523,3.791675575942993e-05,0.007226467594559784,-0.0031619311931051636,29.899999618530273,63484,,,,-0.15791015326976776,0.16030272841453552,10.082324028015137,-0.040746383368968964,0.001597897382453084,-0.010652649216353893,39.11823654174805,,,,,,,,,,,,,,,,2779096485
-0.0665269432067871,0.007538228607177734,9.825949528503418,-0.001096416755348053,0.007402422646572113,-0.003430304592210846,29.899999618530273,63485,18.450000762939453,-20.399999618530273,-71.55000305175781,-0.11005859076976776,0.12680664658546448,10.139745712280273,-0.03648532181978226,0.004793691914528608,-0.008522119373083115,39.11823654174805,,,,,,,,,,,,,,,,2779096485
-0.0739630386352539,0.015152533721923827,9.83281869506836,-0.00048805755591659544,0.007871045784567413,-0.0010793858402940368,29.899999618530273,63486,,,,-0.08134765923023224,0.11723633110523224,10.14453125,-0.03648532181978226,0.0055926404893398285,-0.012783179059624672,39.11823654174805,,,,,,,,,,,,,,,,2779096485
-0.07354437484741211,0.01140074691772461,9.825782720947265,0.0001233909103581238,0.0076003754090373235,-0.001352259981611023,29.899999618530273,63487,,,,-0.06938476860523224,0.083740234375,10.079931259155273,-0.03861585259437561,0.004793691914528608,-0.008522119373083115,39.21235275268555,,,,,,,,,,,,,,,,2779096485
-0.07484747009277344,0.017495278930664063,9.826205422210693,-0.0021297232511976625,0.00762672072993988,-0.0010714496203001404,30.0,63488,,,,-0.11723633110523224,0.09331054985523224,9.955517768859863,-0.03781690448522568,0.0050600082613527775,-0.009321067482233047,39.11823654174805,,,,,,,,,,,,,,,,2779096485
-0.07372531356811524,0.012483313751220703,9.82080387802124,0.0003031010194816589,0.008653682244535981,-0.0026158100679211428,30.30000114440918,63489,18.299999237060547,-20.549999237060547,-70.94999694824219,-0.03349609300494194,0.07416991889476776,10.075146675109863,-0.03728426992893219,0.004793691914528608,-0.006924221757799387,39.11823654174805,,,,,,,,,,,,,,,,2779096485
-0.07510590591430664,0.016240670776367188,9.819377938842774,-0.0006700846151725769,0.00809272731218216,-0.002068430599130707,30.30000114440918,63490,,,,-0.06938476860523224,0.09091796725988388,10.101465225219727,-0.03648532181978226,0.006657905410975218,-0.010652649216353893,39.11823654174805,,,,,,,,,,,,,,,,2779096485
-0.07658579025268554,0.020335418701171875,9.825625184631347,-0.00017927734544937135,0.0073073078488935855,-0.0028856482056163024,30.30000114440918,63491,,,,-0.02153320237994194,0.13398437201976776,10.087109565734863,-0.03728426992893219,0.006657905410975218,-0.007723170332610607,39.21235275268555,,,,,,,,,,,,,,,,2779096485
-0.07494911727905273,0.022426419830322265,9.827338681793213,-0.0020564264005996703,0.007327754268022156,-0.001524852792770233,30.100000381469727,63492,,,,-0.0478515625,0.14116211235523224,10.029687881469727,-0.037550587207078934,0.002929478418081999,-0.009587383829057217,39.21235275268555,,,,,,,,,,,,,,,,2779096485
-0.08336762771606444,0.02150393142700195,9.82926111831665,-0.001293770306572113,0.008275227082528381,-0.00207604723979599,30.100000381469727,63493,18.450000762939453,-21.149999618530273,-71.55000305175781,-0.09091796725988388,0.11723633110523224,10.065576553344727,-0.037550587207078934,0.007989486679434776,-0.011185280978679657,39.11823654174805,,,,,,,,,,,,,,,,2779096485
-0.08201548461914063,0.020493328857421875,9.829704866790772,-0.0008837233963505555,0.007049893357598267,-0.002981568609519043,30.100000381469727,63494,,,,-0.07416991889476776,0.12919922173023224,10.106249809265137,-0.03808322176337242,0.002929478418081999,-0.006924221757799387,39.21235275268555,,,,,,,,,,,,,,,,2779096485
-0.08220700302124023,0.025514864349365233,9.831346362304688,-0.00021104219913299562,0.0068372466039195254,-0.0017175191805079652,30.0,63495,,,,-0.11723633110523224,0.10048828274011612,10.087109565734863,-0.03808322176337242,0.005858956836163998,-0.010120016522705555,39.11823654174805,,,,,,,,,,,,,,,,2779096485
-0.07742906188964843,0.025616062927246094,9.824500971984863,-0.0007345464289149475,0.006924125575983582,-0.0019876968712397767,30.0,63496,,,,-0.09091796725988388,0.15073242783546448,10.113428115844727,-0.03808322176337242,0.004527375567704439,-0.006924221757799387,39.11823654174805,,,,,,,,,,,,,,,,2779096485
-0.08022056503295898,0.03245255584716797,9.831531899261474,-0.001086057058778839,0.0076532258405067445,-0.0005400025126216125,30.0,63497,18.450000762939453,-20.549999237060547,-71.55000305175781,-0.01914062537252903,0.08134765923023224,10.125391006469727,-0.03595269098877907,0.006657905410975218,-0.009587383829057217,39.11823654174805,,,,,,,,,,,,,,,,2779096485
-0.08341738586425781,0.022016840362548827,9.822762352752685,-0.0006140983115411377,0.007444354117647247,-0.0008094212024479675,30.200000762939453,63498,,,,-0.04306640475988388,0.13637694716453552,10.111035346984863,-0.037550587207078934,0.003994743339717388,-0.012250546365976334,39.11823654174805,,,,,,,,,,,,,,,,2779096485
-0.07775288238525391,0.02005159912109375,9.821722104644776,-0.0010343251549595643,0.007112464326979676,-0.0007148656685945129,30.200000762939453,63499,,,,-0.06459961086511612,0.11962890625,10.02490234375,-0.03808322176337242,0.003994743339717388,-0.007989486679434776,39.11823654174805,,,,,,,,,,,,,,,,2779096485
-0.08069919281005859,0.019098979187011717,9.826537205505371,-0.0019061641950273132,0.007271994333081818,-0.0029765019455799866,30.200000762939453,63500,,,,-0.13637694716453552,0.11484374850988388,10.089502334594727,-0.038882169872522354,0.006657905410975218,-0.009587383829057217,39.11823654174805,,,,,,,,,,,,,,,,2779096485
-0.07737466812133789,0.020670155334472657,9.827047198486328,-0.0007884288352996826,0.007612299712736206,-0.002167873033550873,30.200000762939453,63501,19.049999237060547,-21.75,-70.94999694824219,-0.17705078423023224,0.17465820908546448,10.108642578125,-0.035686373710632324,0.0037284272257238626,-0.011185280978679657,39.11823654174805,,,,,,,,,,,,,,,,2779096485
-0.07898206939697265,0.01292160415649414,9.823529286193848,8.20586505241394e-05,0.006609739411460266,-0.0031640484061572264,30.100000381469727,63502,,,,-0.04067382961511612,0.095703125,10.089502334594727,-0.03621900454163551,0.0055926404893398285,-0.010918965563178062,39.11823654174805,,,,,,,,,,,,,,,,2779096485
-0.07502164230346679,0.012931211853027343,9.82532667312622,-0.00042606582406829835,0.008174619515139312,-0.0024414329388438415,30.100000381469727,63503,,,,-0.06220703199505806,0.107666015625,10.082324028015137,-0.03728426992893219,0.0055926404893398285,-0.010386332869529724,39.11823654174805,,,,,,,,,,,,,,,,2779096485
-0.07639999160766602,0.014819367218017578,9.82674061203003,-0.0018290523661940003,0.007005292067548676,-0.0006220744789511109,30.100000381469727,63504,,,,-0.07416991889476776,0.107666015625,10.125391006469727,-0.03781690448522568,0.0034621108788996935,-0.008522119373083115,39.11823654174805,,,,,,,,,,,,,,,,2779096485
-0.0770997833251953,0.014062452697753906,9.826266246032715,-0.002715858371485138,0.006971343421786194,-0.0014353306333424378,30.0,63505,18.0,-21.75,-71.55000305175781,-0.08613280951976776,0.11245117336511612,10.111035346984863,-0.03834953531622887,0.005326324608176947,-0.009587383829057217,39.11823654174805,,,,,,,,,,,,,,,,2779096485
-0.0759859634399414,0.00999211654663086,9.83027964630127,-0.0008874851113644409,0.008225379365167389,-0.0018083462888609314,30.0,63506,,,,-0.05024414137005806,0.13637694716453552,10.146924018859863,-0.035153742879629135,0.0050600082613527775,-0.008788435719907284,39.02411651611328,,,,,,,,,,,,,,,,2779096485
-0.07762323455810546,0.00792769546508789,9.829883786773681,-0.0016685103588845824,0.008506156436964875,-0.0013533385618450927,30.100000381469727,63507,,,,-0.06459961086511612,0.07177734375,10.106249809265137,-0.03595269098877907,0.004261059686541557,-0.011717913672327995,39.21235275268555,,,,,,,,,,,,,,,,2779096485
-0.07008500595092773,0.00919658432006836,9.825766944885254,-0.0019031015597947693,0.006195271653859558,-0.0030632943649092103,30.100000381469727,63508,18.299999237060547,-21.75,-71.55000305175781,-0.095703125,0.107666015625,10.106249809265137,-0.036751639097929,0.007190538104623556,-0.011717913672327995,39.21235275268555,,,,,,,,,,,,,,,,2779096485
-0.07252842636108398,0.007398524475097656,9.828168981170654,-0.0006841860530476379,0.006749601973047333,-0.0012581904746531676,30.100000381469727,63509,,,,-0.12919922173023224,0.11005859076976776,10.154101371765137,-0.038882169872522354,0.004261059686541557,-0.011185280978679657,39.11823654174805,,,,,,,,,,,,,,,,2779096485
-0.07055140914916992,0.00737142105102539,9.83354173965454,-0.001034518234137268,0.0074544408402066045,-0.0027084747574136355,30.100000381469727,63510,,,,-0.08613280951976776,0.13876953721046448,10.053613662719727,-0.037017956376075745,0.0050600082613527775,-0.012783179059624672,39.11823654174805,,,,,,,,,,,,,,,,2779096485
-0.07122435913085937,0.0036556724548339843,9.826401202392578,5.514740789382935e-05,0.006941389517631378,-0.0010844058989143372,30.0,63511,,,,-0.06699218600988388,0.15312500298023224,10.0009765625,-0.038882169872522354,0.003994743339717388,-0.009587383829057217,39.02411651611328,,,,,,,,,,,,,,,,2779096485
-0.06695080337524414,0.0037383285522460934,9.832958548736572,-3.297659197128296e-05,0.0056649497317338565,-0.0025290908855213927,29.899999618530273,63512,18.299999237060547,-21.149999618530273,-71.0999984741211,-0.05742187425494194,0.09331054985523224,10.16845703125,-0.03648532181978226,0.0055926404893398285,-0.008255803026258945,39.11823654174805,,,,,,,,,,,,,,,,2779096485
-0.06387383575439452,0.0028103073120117187,9.833986347961426,-0.0005699098114576722,0.008705021332097168,-0.0024477978938053893,29.899999618530273,63513,,,,-0.10527344048023224,0.15791015326976776,10.070361137390137,-0.03834953531622887,0.003994743339717388,-0.010120016522705555,39.11823654174805,,,,,,,,,,,,,,,,2779096485
-0.06774562530517578,-0.0019277450561523436,9.825614604949951,-0.002295731396606903,0.007472530361786652,-0.002707808967145691,30.100000381469727,63514,,,,-0.03349609300494194,0.12919922173023224,10.163671493530273,-0.03808322176337242,0.0037284272257238626,-0.009321067482233047,39.21235275268555,,,,,,,,,,,,,,,,2779096485
-0.06483583908081055,-2.7252960205078124e-05,9.827967182159423,-0.0016050938358628845,0.008267304178339844,-0.003166265487749481,30.100000381469727,63515,,,,-0.083740234375,0.12919922173023224,10.07275390625,-0.037017956376075745,0.0021305298432707787,-0.009587383829057217,39.02411651611328,,,,,,,,,,,,,,,,2779096485
-0.06111422119140625,-0.00451288833618164,9.826773023986815,-0.00047370311773971556,0.007110526877299957,-0.001174174400741272,30.100000381469727,63516,17.850000381469727,-21.149999618530273,-71.25,-0.05024414137005806,0.11484374850988388,10.091894149780273,-0.03781690448522568,0.002396845957264304,-0.006924221757799387,39.11823654174805,,,,,,,,,,,,,,,,2779096485
-0.05963938369750976,-0.005798300933837891,9.827058600616455,0.0001352619508355713,0.007651381601464538,-0.0009065000814169311,30.100000381469727,63517,,,,-0.10288085788488388,0.12919922173023224,10.084716796875,-0.03462110832333565,0.008255803026258945,-0.011717913672327995,39.11823654174805,,,,,,,,,,,,,,,,2779096485
-0.060727184295654296,-0.0024962814331054685,9.832815891265868,-0.0008242882991311646,0.007905034377745972,-0.002624771604927673,30.100000381469727,63518,,,,-0.035888671875,0.05742187425494194,10.07275390625,-0.03781690448522568,0.005858956836163998,-0.009321067482233047,39.21235275268555,,,,,,,,,,,,,,,,2779096485
-0.060575218200683595,-0.0011518020629882812,9.83157571334839,-0.000734433244569397,0.006921848573267212,-0.0022593792479771425,30.100000381469727,63519,,,,-0.03110351599752903,0.08852539211511612,10.091894149780273,-0.03621900454163551,0.007456854451447725,-0.011717913672327995,39.02411651611328,,,,,,,,,,,,,,,,2779096485
-0.06150907135009766,-0.001945203399658203,9.832670205688476,-0.0008983707822453308,0.006845309324064331,-0.002801019604657898,30.200000762939453,63520,18.149999618530273,-21.149999618530273,-70.94999694824219,0.01914062537252903,0.11245117336511612,10.075146675109863,-0.03728426992893219,0.002396845957264304,-0.011717913672327995,39.11823654174805,,,,,,,,,,,,,,,,2779096485
-0.06012103958129883,-0.0019788864135742187,9.832127987670898,-0.0007977432411482238,0.007244470563404999,-0.0011712648972703552,30.200000762939453,63521,,,,-0.07895507663488388,0.13637694716453552,10.077539443969727,-0.03462110832333565,0.004261059686541557,-0.012250546365976334,39.11823654174805,,,,,,,,,,,,,,,,2779096485
-0.06381899337768554,-0.0025566192626953125,9.827142153930664,-0.0013223593406776427,0.007776636724572907,-0.0018052570220176696,30.200000762939453,63522,,,,-0.05263672024011612,0.06699218600988388,10.082324028015137,-0.040213748812675476,0.006125273182988167,-0.008788435719907284,39.21235275268555,,,,,,,,,,,,,,,,2779096485
-0.0595573257446289,-0.001935932159423828,9.828230702209472,-0.0006938799593489075,0.007150074819215851,-0.004883052298962708,30.200000762939453,63523,,,,-0.03349609300494194,0.13637694716453552,10.034472465515137,-0.03621900454163551,0.004793691914528608,-0.011717913672327995,39.11823654174805,,,,,,,,,,,,,,,,2779096485
-0.0594986328125,0.003205531311035156,9.829434954071045,-0.0001978528939250183,0.006655252834176941,-0.0016172245345448303,30.200000762939453,63524,18.0,-21.450000762939453,-71.0999984741211,-0.08852539211511612,0.11484374850988388,10.046435356140137,-0.03861585259437561,0.004527375567704439,-0.009321067482233047,39.11823654174805,,,,,,,,,,,,,,,,2779096485
-0.06301411514282226,0.0017991065979003906,9.825929303741455,0.0004085888295347595,0.008177082939130708,-0.001986931212431641,30.200000762939453,63525,,,,-0.04067382961511612,0.107666015625,10.122998237609863,-0.03728426992893219,0.0021305298432707787,-0.012783179059624672,39.02411651611328,,,,,,,,,,,,,,,,2779096485
-0.06378295516967773,0.0004955253601074219,9.833025914764404,-0.000555056030579834,0.00789764410577179,-0.0020736237632206726,30.200000762939453,63526,,,,-0.03349609300494194,0.11484374850988388,10.063183784484863,-0.035686373710632324,0.006924221757799387,-0.008788435719907284,39.11823654174805,,,,,,,,,,,,,,,,2779096485
-0.06243361587524414,0.004079270935058593,9.826781173706054,-0.0017102088033659362,0.006512360926870728,-0.0015236543702879333,30.0,63527,,,,0.009570312686264515,0.14833983778953552,10.103857040405273,-0.03861585259437561,0.004527375567704439,-0.010120016522705555,39.11823654174805,,,,,,,,,,,,,,,,2779096485
-0.06595115432739257,0.005372010803222656,9.8181736869812,-0.001247244882648163,0.007892078099131774,-0.0037009017308114625,30.0,63528,18.149999618530273,-21.600000381469727,-71.25,-0.095703125,0.095703125,10.089502334594727,-0.03808322176337242,0.0037284272257238626,-0.009054751135408878,39.11823654174805,,,,,,,,,,,,,,,,2779096485
-0.07337644577026367,0.00767838134765625,9.835083195495605,-0.0013345899078997803,0.007809912922164764,-0.0027946613075990295,30.0,63529,,,,-0.11005859076976776,0.15312500298023224,10.032079696655273,-0.03542005643248558,0.0037284272257238626,-0.011717913672327995,39.11823654174805,,,,,,,,,,,,,,,,2779096485
-0.0717905403137207,0.0100189208984375,9.826767491149901,-0.0011338807737252808,0.007232299917306976,-0.002066526438964386,30.100000381469727,63530,,,,-0.07895507663488388,0.03349609300494194,10.0966796875,-0.034354791045188904,0.006125273182988167,-0.010652649216353893,39.11823654174805,,,,,,,,,,,,,,,,2779096485
-0.07369566802978515,0.011582844543457031,9.833734491729736,-0.0009607020671302795,0.0075964272727484135,-0.0014344517901887512,30.100000381469727,63531,,,,-0.05742187425494194,0.13637694716453552,10.111035346984863,-0.0391484834253788,0.003994743339717388,-0.010386332869529724,39.11823654174805,,,,,,,,,,,,,,,,2779096485
-0.07364448928833008,0.011931188964843749,9.830200691223144,-0.00113508585411026,0.00793291767416748,-0.0040614005292926025,30.100000381469727,63532,17.850000381469727,-21.149999618530273,-71.0999984741211,-0.07895507663488388,0.16508789360523224,10.091894149780273,-0.03621900454163551,0.004793691914528608,-0.009054751135408878,39.11823654174805,,,,,,,,,,,,,,,,2779096485
-0.07389462585449219,0.017904783630371093,9.829310203552247,-0.0003212038568670654,0.006377678213568268,-0.0024263394734695435,30.30000114440918,63533,,,,-0.07416991889476776,0.13637694716453552,10.163671493530273,-0.035686373710632324,0.0026631623040884733,-0.008788435719907284,39.11823654174805,,,,,,,,,,,,,,,,2779096485
-0.07542729644775391,0.01594929962158203,9.824495065307618,-0.0010483400400997924,0.007520327445122376,0.00019627497098999023,30.30000114440918,63534,,,,-0.10288085788488388,0.14116211235523224,10.065576553344727,-0.03595269098877907,0.006657905410975218,-0.011451597325503826,39.11823654174805,,,,,,,,,,,,,,,,2779096485
-0.077914306640625,0.01492527618408203,9.831655864715575,-0.000523850440721283,0.007328619795370484,-0.0013444702354760741,30.30000114440918,63535,,,,-0.10527344048023224,0.12202148139476776,10.125391006469727,-0.03808322176337242,0.0026631623040884733,-0.012516862712800503,39.11823654174805,,,,,,,,,,,,,,,,2779096485
-0.07959187774658202,0.019624112701416015,9.831309912872314,-0.0002923551645570374,0.007707960458434448,-0.0033417744602822876,30.200000762939453,63536,18.299999237060547,-21.149999618530273,-71.25,-0.08613280951976776,0.1435546875,10.079931259155273,-0.038882169872522354,0.005858956836163998,-0.012250546365976334,39.30646896362305,,,,,,,,,,,,,,,,2779096485
-0.08264387283325195,0.019696002197265625,9.831478028869629,-0.0011197194147261047,0.00682140079554245,-0.0033399102475320437,30.0,63537,,,,-0.06699218600988388,0.10527344048023224,10.032079696655273,-0.03861585259437561,0.0037284272257238626,-0.008522119373083115,39.11823654174805,,,,,,,,,,,,,,,,2779096485
-0.07837315826416015,0.018689810943603516,9.827925312042236,-0.0006812499179660034,0.005928975520389862,-0.002885475100146637,30.0,63538,,,,-0.02871093712747097,0.19379882514476776,10.108642578125,-0.035153742879629135,0.004527375567704439,-0.011984230019152164,39.21235275268555,,,,,,,,,,,,,,,,2779096485
-0.0816897575378418,0.02322498016357422,9.823924061584473,-0.0011365838822131348,0.0072569341572209164,-0.0017125856746224976,30.0,63539,,,,-0.02631836012005806,0.155517578125,10.137353897094727,-0.03648532181978226,0.005858956836163998,-0.008788435719907284,39.21235275268555,,,,,,,,,,,,,,,,2779096485
-0.07886707611083985,0.01790463409423828,9.827042936706542,-0.0007367768263125611,0.0077303443272427365,-0.002081080614221649,29.899999618530273,63540,18.299999237060547,-22.350000381469727,-70.5,-0.10048828274011612,0.1435546875,10.151708602905273,-0.03834953531622887,0.003195794764906168,-0.015712657943367958,39.11823654174805,,,,,,,,,,,,,,,,2779096485
-0.08080270919799805,0.019294086456298827,9.823847274780274,0.0014408899820797729,0.008723310590757599,-0.0015487480054867553,29.899999618530273,63541,,,,-0.059814453125,0.13876953721046448,10.091894149780273,-0.03834953531622887,0.005326324608176947,-0.005858956836163998,39.11823654174805,,,,,,,,,,,,,,,,2779096485
-0.08134219818115235,0.02362850341796875,9.82993500289917,-0.0021246765609666445,0.006837479630513306,-0.002525488960171814,30.0,63542,,,,-0.07177734375,0.14116211235523224,10.082324028015137,-0.035686373710632324,0.0026631623040884733,-0.008788435719907284,39.11823654174805,,,,,,,,,,,,,,,,2779096485
-0.07989700622558593,0.023694037628173827,9.827008692932129,-0.0005125253482635498,0.0074830032427014165,0.0006404835798597717,30.100000381469727,63543,,,,-0.04067382961511612,0.12680664658546448,10.046435356140137,-0.037017956376075745,0.007723170332610607,-0.007723170332610607,39.11823654174805,,,,,,,,,,,,,,,,2779096485
-0.07774895706176757,0.016193679046630858,9.826743527984618,-0.001095711017664032,0.006965477809525604,-0.0020703081276863097,30.100000381469727,63544,18.899999618530273,-21.75,-70.80000305175781,-0.03349609300494194,0.13876953721046448,10.041650772094727,-0.03488742560148239,0.006125273182988167,-0.006657905410975218,39.11823654174805,,,,,,,,,,,,,,,,2779096485
-0.07597474822998046,0.020593443298339842,9.82964778137207,-0.0015337144612365722,0.007594975849964295,-0.0017992981991195678,30.100000381469727,63545,,,,-0.07895507663488388,0.16269531846046448,10.094286918640137,-0.03621900454163551,0.0026631623040884733,-0.013049494475126266,39.11823654174805,,,,,,,,,,,,,,,,2779096485
-0.08163637313842773,0.02198098907470703,9.822456700897217,-0.0012081097306983948,0.0070986558368225094,-0.002344367375680237,30.0,63546,,,,-0.12919922173023224,0.17226561903953552,10.103857040405273,-0.038882169872522354,0.005326324608176947,-0.007723170332610607,39.21235275268555,,,,,,,,,,,,,,,,2779096485
-0.07540710906982422,0.01940250015258789,9.830120838928222,-0.0006833871047261048,0.006564206015035553,-0.0019820576276702883,30.0,63547,,,,-0.08852539211511612,0.16269531846046448,10.084716796875,-0.0391484834253788,0.0021305298432707787,-0.010918965563178062,39.21235275268555,,,,,,,,,,,,,,,,2779096485
-0.08204643859863281,0.01573228530883789,9.823935276794433,-0.0008558800473451233,0.006016959704298706,-0.0030663037369203184,30.0,63548,18.149999618530273,-21.0,-71.55000305175781,-0.13637694716453552,0.12680664658546448,10.099072456359863,-0.037550587207078934,0.006125273182988167,-0.007190538104623556,39.11823654174805,,,,,,,,,,,,,,,,2779096485
-0.07513689727783203,0.017080054473876952,9.831675790405273,0.0010768425214704896,0.007952718276736145,-0.0011761384820317077,30.100000381469727,63549,,,,-0.07416991889476776,0.179443359375,10.127782821655273,-0.03488742560148239,0.003195794764906168,-0.006657905410975218,39.02411651611328,,,,,,,,,,,,,,,,2779096485
-0.07832403564453125,0.014790282440185546,9.82783585205078,-0.002402470892363739,0.0064239572950930785,-0.0023355523125326537,30.100000381469727,63550,,,,-0.11245117336511612,0.11005859076976776,10.115819931030273,-0.037017956376075745,0.007989486679434776,-0.007723170332610607,39.21235275268555,,,,,,,,,,,,,,,,2779096485
-0.07697189254760742,0.010049949645996094,9.83160689163208,-0.0021447235059344483,0.007856551530434266,-0.002613173538460083,30.100000381469727,63551,,,,-0.06938476860523224,0.07656250149011612,10.075146675109863,-0.04127901419997215,0.006391589529812336,-0.011185280978679657,39.11823654174805,,,,,,,,,,,,,,,,2779096485
-0.07095014724731445,0.01312220687866211,9.835843212890625,-0.0014143382661941529,0.007674604366010437,-0.002167273822309723,30.100000381469727,63552,18.149999618530273,-21.450000762939453,-71.69999694824219,-0.07177734375,0.07895507663488388,10.079931259155273,-0.03781690448522568,0.000798948691226542,-0.010652649216353893,39.02411651611328,,,,,,,,,,,,,,,,2779096485
-0.06857943878173828,0.009006262207031249,9.826873811340331,-0.0012583702380255127,0.007102184525242615,-0.0020770592410032655,30.0,63553,,,,-0.07416991889476776,0.095703125,10.12060546875,-0.037017956376075745,0.002396845957264304,-0.010918965563178062,39.11823654174805,,,,,,,,,,,,,,,,2779096485
-0.07180414810180664,0.009373336029052734,9.82971955871582,-0.0015686950819143676,0.006488492345764923,-0.0006293915139958191,30.0,63554,,,,-0.13637694716453552,0.11962890625,10.142138481140137,-0.03595269098877907,0.005326324608176947,-0.008788435719907284,39.21235275268555,,,,,,,,,,,,,,,,2779096485
-0.06816664428710938,0.008431183624267579,9.825839469909667,-0.00033918019410156253,0.007131053191260681,-0.0010878214029888917,30.100000381469727,63555,,,,-0.08852539211511612,0.16269531846046448,10.015332221984863,-0.03941480070352554,0.0055926404893398285,-0.008255803026258945,39.11823654174805,,,,,,,,,,,,,,,,2779096485
-0.06580845947265625,0.008816837310791015,9.8263371635437,-0.0009309412421531678,0.00623052524854721,-0.004613220819170227,30.100000381469727,63556,18.75,-21.0,-71.25,-0.083740234375,0.131591796875,10.111035346984863,-0.03542005643248558,0.0034621108788996935,-0.009587383829057217,39.11823654174805,,,,,,,,,,,,,,,,2779096485
-0.0658641616821289,0.009606649780273438,9.826966075134276,-0.0015487613212921143,0.008490490391960145,-0.002354913493524475,30.100000381469727,63557,,,,-0.095703125,0.203369140625,10.111035346984863,-0.03542005643248558,0.0034621108788996935,-0.009321067482233047,39.11823654174805,,,,,,,,,,,,,,,,2779096485
-0.06300488128662109,0.0008023735046386719,9.824646059417724,-0.0019797340196351623,0.008325567484687652,-0.0016278638630265808,30.200000762939453,63558,,,,-0.04306640475988388,0.14594726264476776,10.067968368530273,-0.03808322176337242,0.0034621108788996935,-0.008788435719907284,39.11823654174805,,,,,,,,,,,,,,,,2779096485
-0.06377076797485351,0.0036097648620605468,9.815591497039794,0.0009446631795755005,0.008050096761325684,-0.001542403024233246,30.30000114440918,63559,,,,-0.02631836012005806,0.09809570014476776,10.039258003234863,-0.037550587207078934,0.004527375567704439,-0.006924221757799387,39.11823654174805,,,,,,,,,,,,,,,,2779096485
-0.05285945281982422,0.0008692161560058593,9.845675699615478,-0.0003632884597038269,0.00803973040685379,-0.0026245918415553284,30.30000114440918,63560,18.149999618530273,-21.75,-70.94999694824219,-0.11005859076976776,0.06699218600988388,10.161279678344727,-0.034354791045188904,0.0050600082613527775,-0.016245288774371147,39.11823654174805,,,,,,,,,,,,,,,,2779096485
-0.06782345886230469,-0.0008626739501953125,9.817803136444091,-0.0002766691458442688,0.007883243062276153,9.257813675765992e-05,30.30000114440918,63561,,,,-0.03828125074505806,0.095703125,10.041650772094727,-0.03595269098877907,0.004261059686541557,-0.010918965563178062,39.21235275268555,,,,,,,,,,,,,,,,2779096485
-0.06281100769042969,0.008763340759277344,9.829685464477539,-0.0018913570194682313,0.007879601189510498,-0.0013549164847801208,30.200000762939453,63562,,,,0.0047851563431322575,0.17465820908546448,10.154101371765137,-0.03728426992893219,0.004793691914528608,-0.011185280978679657,39.11823654174805,,,,,,,,,,,,,,,,2779096485
-0.05948513717651367,-0.000306549072265625,9.832802657318116,0.0003718571804522705,0.008036448060832825,-0.0032656346852401735,30.100000381469727,63563,18.899999618530273,-21.149999618530273,-71.0999984741211,-0.05263672024011612,0.11723633110523224,10.130175590515137,-0.037017956376075745,0.0055926404893398285,-0.008522119373083115,39.11823654174805,,,,,,,,,,,,,,,,2779096485
-0.0629929557800293,0.003236859130859375,9.832541679382324,0.0002933205604455566,0.007413974107720947,-0.0011715245554748536,30.100000381469727,63564,,,,-0.04067382961511612,0.10288085788488388,10.029687881469727,-0.03542005643248558,0.004261059686541557,-0.009321067482233047,39.21235275268555,,,,,,,,,,,,,,,,2779096485
-0.06423885345458984,0.002005802917480469,9.820980517578125,2.5499767262268068e-05,0.007851757840505066,-0.001353718062297821,30.0,63565,,,,-0.13637694716453552,0.15073242783546448,10.130175590515137,-0.037550587207078934,0.007723170332610607,-0.010918965563178062,39.11823654174805,,,,,,,,,,,,,,,,2779096485
-0.06316552047729491,0.005427264404296875,9.83357067489624,-0.0010348511292712402,0.0074612651904530335,-0.0018934209692988587,29.899999618530273,63566,,,,-0.07177734375,0.09091796725988388,10.082324028015137,-0.035153742879629135,0.002396845957264304,-0.010120016522705555,39.11823654174805,,,,,,,,,,,,,,,,2779096485
-0.06340773162841797,0.006263956451416015,9.822018186187744,-0.00033863424608184813,0.007917085181595764,-0.001082361922791748,29.899999618530273,63567,18.299999237060547,-21.149999618530273,-70.3499984741211,-0.095703125,0.15073242783546448,10.118212699890137,-0.035153742879629135,0.004793691914528608,-0.011451597325503826,39.11823654174805,,,,,,,,,,,,,,,,2779096485
-0.06836863021850585,0.005647418975830078,9.82826288986206,-0.0016344218971658326,0.008833425643172913,-0.0017136509390512085,30.0,63568,,,,-0.03828125074505806,0.07177734375,10.106249809265137,-0.03595269098877907,0.005326324608176947,-0.009321067482233047,39.11823654174805,,,,,,,,,,,,,,,,2779096485
-0.0650051139831543,0.005382515716552734,9.822753380584716,-0.00031604398229049684,0.008935045211769257,-0.0025327527319950866,30.0,63569,,,,-0.07416991889476776,0.12202148139476776,10.106249809265137,-0.03648532181978226,0.004527375567704439,-0.009853700175881386,39.11823654174805,,,,,,,,,,,,,,,,2779096485
-0.07134099731445312,0.0018535003662109373,9.827234679412841,-0.0008369249984167481,0.007869953888527985,-0.0011687415521548462,30.0,63570,,,,-0.05263672024011612,0.10288085788488388,9.981836318969727,-0.03621900454163551,0.003195794764906168,-0.010918965563178062,39.21235275268555,,,,,,,,,,,,,,,,2779096485
-0.07141741027832031,0.0005807235717773437,9.833585665893555,-0.001097395467041931,0.007675962578157044,-0.0028878719451112364,30.0,63571,19.049999237060547,-21.0,-71.0999984741211,-0.059814453125,0.09331054985523224,10.125391006469727,-0.035686373710632324,0.005326324608176947,-0.014114759862422943,39.02411651611328,,,,,,,,,,,,,,,,2779096485
-0.0693692886352539,0.0038223304748535155,9.828400388336181,-0.0012715329116227722,0.007415904899497986,-0.001799584488934784,30.0,63572,,,,-0.07656250149011612,0.14116211235523224,10.063183784484863,-0.037017956376075745,0.005326324608176947,-0.009321067482233047,39.11823654174805,,,,,,,,,,,,,,,,2779096485
-0.06872512435913086,0.008794444274902344,9.825992445373535,-0.00039677105227874755,0.006689580980392151,-0.002977407420344391,30.0,63573,,,,0.02153320237994194,0.095703125,10.187597274780273,-0.035686373710632324,0.009054751135408878,-0.006924221757799387,39.11823654174805,,,,,,,,,,,,,,,,2779096485
-0.07065227127075195,0.008606365203857422,9.82951484375,-0.0014098242081774903,0.007862856564271698,-0.002167500191000824,30.0,63574,,,,-0.15312500298023224,0.10048828274011612,10.053613662719727,-0.03595269098877907,0.0037284272257238626,-0.013315810821950436,39.11823654174805,,,,,,,,,,,,,,,,2779096485
-0.07660164108276367,0.008201907348632811,9.829266314697266,-0.0011736750580403138,0.007914555178577577,-0.0014462629095420838,29.899999618530273,63575,19.350000381469727,-21.149999618530273,-72.0,-0.06459961086511612,0.08852539211511612,10.170849800109863,-0.03488742560148239,0.007989486679434776,-0.010386332869529724,39.11823654174805,,,,,,,,,,,,,,,,2779096485
-0.0770398941040039,0.016416413116455076,9.824266013336182,0.00048789776625228883,0.006561343116883393,-0.0026246184731660463,29.899999618530273,63576,,,,-0.083740234375,0.09331054985523224,10.113428115844727,-0.03781690448522568,0.006924221757799387,-0.009587383829057217,39.11823654174805,,,,,,,,,,,,,,,,2779096485
-0.07449527511596679,0.01272324447631836,9.831901776885987,-0.0009074455035974121,0.008017945749286652,-0.0009037104201942444,30.0,63577,,,,-0.08613280951976776,0.08134765923023224,10.115819931030273,-0.035153742879629135,0.006924221757799387,-0.009853700175881386,39.11823654174805,,,,,,,,,,,,,,,,2779096485
-0.07507132568359375,0.013081495666503906,9.817745976257324,-0.0011917312901069642,0.008556170601892853,-0.0037967422398820496,30.200000762939453,63578,,,,-0.06459961086511612,0.11245117336511612,10.122998237609863,-0.03542005643248558,0.006391589529812336,-0.010120016522705555,39.02411651611328,,,,,,,,,,,,,,,,2779096485
-0.07585968017578125,0.0036120452880859374,9.817392248535157,-0.0007499727894232178,0.008129166013546752,-0.0023472901949565124,30.200000762939453,63579,18.75,-21.600000381469727,-71.0999984741211,-0.05742187425494194,0.07177734375,10.103857040405273,-0.03648532181978226,0.0055926404893398285,-0.008255803026258945,39.11823654174805,,,,,,,,,,,,,,,,2779096485
-0.06669476013183594,0.0011259696960449219,9.83818240661621,-0.0007497397628294372,0.00820897429296524,-0.0035249067313830565,30.200000762939453,63580,,,,-0.12202148139476776,0.06938476860523224,10.113428115844727,-0.03648532181978226,0.007723170332610607,-0.010120016522705555,39.11823654174805,,,,,,,,,,,,,,,,2779096485
-0.07416779098510742,0.01236342315673828,9.829842477416992,-0.0007934954992387391,0.007605814915526428,-0.0018966034467796326,30.100000381469727,63581,,,,-0.04545898362994194,0.05263672024011612,9.965087890625,-0.037017956376075745,0.004793691914528608,-0.009054751135408878,39.11823654174805,,,,,,,,,,,,,,,,2779096485
-0.07694157409667969,0.01309517822265625,9.840195125579834,-0.0021957296983616636,0.008305433986985016,-0.0028002872353631593,30.0,63582,,,,-0.08852539211511612,0.11723633110523224,10.0966796875,-0.035686373710632324,0.004527375567704439,-0.008788435719907284,39.11823654174805,,,,,,,,,,,,,,,,2779096485
-0.07183768157958983,0.008276226806640625,9.837241188812255,-0.000883370527508545,0.006873598752549286,-0.0026186929397813414,30.0,63583,18.75,-21.299999237060547,-70.5,-0.04306640475988388,0.16030272841453552,10.029687881469727,-0.037017956376075745,0.007456854451447725,-0.009321067482233047,39.11823654174805,,,,,,,,,,,,,,,,2779096485
-0.08001925201416016,0.010978643798828125,9.830371087646483,-0.0004824982071792603,0.007613844346157837,-0.0007157844591642762,30.200000762939453,63584,,,,-0.11005859076976776,0.16748046875,10.053613662719727,-0.035686373710632324,0.004793691914528608,-0.011984230019152164,39.11823654174805,,,,,,,,,,,,,,,,2779096485
-0.07403982543945312,0.008484231567382813,9.824006979370116,-0.0012459399337229919,0.007020472085657806,-0.000709219767122345,30.200000762939453,63585,,,,-0.02631836012005806,0.11962890625,10.053613662719727,-0.03648532181978226,0.006125273182988167,-0.010120016522705555,39.21235275268555,,,,,,,,,,,,,,,,2779096485
-0.07785909042358398,0.005551416778564453,9.821651635742187,-0.002116127813926239,0.006554631950982513,-0.0026969765594862367,30.200000762939453,63586,,,,-0.095703125,0.16987304389476776,10.106249809265137,-0.03621900454163551,0.0050600082613527775,-0.008522119373083115,39.11823654174805,,,,,,,,,,,,,,,,2779096485
-0.07067533721923829,0.008238880157470704,9.82946407623291,-0.00046003444353881836,0.006749968157694702,-0.000982693119680481,30.200000762939453,63587,18.600000381469727,-21.0,-70.94999694824219,-0.05742187425494194,0.095703125,10.134961128234863,-0.037550587207078934,0.006391589529812336,-0.008255803026258945,39.21235275268555,,,,,,,,,,,,,,,,2779096485
-0.07341420364379883,0.009646800231933593,9.830133213043213,6.52740778692627e-05,0.006203400953031159,-0.0020693693634085083,30.200000762939453,63588,,,,-0.08852539211511612,0.10288085788488388,10.077539443969727,-0.037017956376075745,0.002929478418081999,-0.006924221757799387,39.21235275268555,,,,,,,,,,,,,,,,2779096485
-0.06229596786499023,0.012383834838867187,9.821386134338379,-0.0003753725530670166,0.007647440123078308,-0.0008955744631199646,30.200000762939453,63589,,,,-0.11484374850988388,0.1435546875,10.056005477905273,-0.038882169872522354,0.0050600082613527775,-0.011451597325503826,39.11823654174805,,,,,,,,,,,,,,,,2779096485
-0.07991711883544922,0.014146379852294921,9.830299571990967,-0.0014369218720828246,0.008041927514738006,-0.004064403243401031,30.200000762939453,63590,,,,-0.11005859076976776,0.15312500298023224,10.14453125,-0.03648532181978226,0.003994743339717388,-0.009853700175881386,39.11823654174805,,,,,,,,,,,,,,,,2779096485
-0.07635711212158203,0.0005102546691894531,9.848882651519775,0.00015287876132537843,0.010384390730251923,-0.0010950319115907287,29.899999618530273,63591,18.600000381469727,-21.299999237060547,-70.5,-0.08613280951976776,0.17465820908546448,10.118212699890137,-0.03488742560148239,0.0050600082613527775,-0.010652649216353893,39.21235275268555,,,,,,,,,,,,,,,,2779096485
-0.09177425003051758,0.00261807861328125,9.764877850341797,-0.00131940323188797,0.006702184390164337,-0.0016203670646095275,29.899999618530273,63592,,,,-0.07895507663488388,0.06459961086511612,10.125391006469727,-0.037017956376075745,0.006924221757799387,-0.010386332869529724,39.11823654174805,,,,,,,,,,,,,,,,2779096485
-0.09868760452270507,0.020933712768554685,9.792786190032958,-0.0018267487318669128,0.0025972811247642518,-0.00024527047680801393,30.0,63593,,,,-0.05263672024011612,0.08613280951976776,10.070361137390137,-0.03462110832333565,0.0034621108788996935,-0.011185280978679657,39.11823654174805,,,,,,,,,,,,,,,,2779096485
-0.04068294982910156,0.01993365249633789,9.83527991027832,-0.0022728481850976564,0.003539354380197449,-0.0007830692236427307,30.30000114440918,63594,,,,-0.083740234375,0.1435546875,10.075146675109863,-0.03781690448522568,0.006657905410975218,-0.009321067482233047,39.11823654174805,,,,,,,,,,,,,,,,2779096485
-0.09177753982543944,0.028213131713867187,9.770058679199218,0.00035558526630371097,0.004816619746027222,-0.0016104001842984009,30.30000114440918,63595,17.850000381469727,-20.700000762939453,-70.94999694824219,-0.059814453125,0.131591796875,10.070361137390137,-0.03595269098877907,0.0050600082613527775,-0.0055926404893398285,39.11823654174805,,,,,,,,,,,,,,,,2779096485
-0.08935296096801758,0.014408292388916015,9.84163542022705,-0.001384923652156372,0.003381076059799042,-0.0015087406682859803,30.30000114440918,63596,,,,-0.03110351599752903,0.22250977158546448,10.12060546875,-0.03808322176337242,0.007723170332610607,-0.013848443515598774,39.11823654174805,,,,,,,,,,,,,,,,2779096485
-0.07412289276123046,0.00014890060424804688,9.837362126159668,-0.0023831563166906737,0.0014070145732467652,-0.002860934070870209,30.200000762939453,63597,,,,-0.07416991889476776,0.06459961086511612,10.14453125,-0.035686373710632324,0.006391589529812336,-0.009054751135408878,39.11823654174805,,,,,,,,,,,,,,,,2779096485
-0.01565045166015625,0.02863115997314453,9.945184481811523,-0.0027430625618333434,0.0032960146951664733,-0.0010554839696748353,30.100000381469727,63598,,,,-0.06220703199505806,0.07895507663488388,9.922021865844727,-0.036751639097929,-0.001597897382453084,-0.010120016522705555,39.11823654174805,,,,,,,,,,,,,,,,2779096485
-0.1033652816772461,0.009999182128906249,9.732286524963378,0.00021306620154754638,0.0050742938955270385,-0.002159237733775635,30.100000381469727,63599,18.899999618530273,-21.0,-70.05000305175781,-0.09809570014476776,0.12202148139476776,10.027295112609863,-0.04127901419997215,0.0005326324608176947,-0.010386332869529724,39.11823654174805,,,,,,,,,,,,,,,,2779096485
-0.07004328536987305,0.03428478469848633,9.820963134002685,-0.0008776846786203002,0.004644892462216339,-0.0010712964885385133,29.899999618530273,63600,,,,-0.15073242783546448,0.12441406399011612,10.230664253234863,-0.037550587207078934,0.0034621108788996935,-0.008522119373083115,39.11823654174805,,,,,,,,,,,,,,,,2779096485
-0.051450336456298824,0.010753890991210937,9.872717066192626,-0.0015149924389019776,0.0054773633237405394,-0.0033383589562077333,29.899999618530273,63601,,,,-0.07895507663488388,0.15073242783546448,10.060791015625,-0.0391484834253788,0.0013315811520442367,-0.009587383829057217,39.11823654174805,,,,,,,,,,,,,,,,2779096485
-0.08750110549926758,0.010324086761474609,9.793501982116698,-2.5513083067626953e-05,0.004610044999592133,-0.0010759370467060853,30.0,63602,19.200000762939453,-20.549999237060547,-70.80000305175781,-0.11484374850988388,0.11005859076976776,10.02490234375,-0.03968111798167229,-0.00026631623040884733,-0.007989486679434776,39.21235275268555,,,,,,,,,,,,,,,,2779096485
-0.0557913330078125,0.008869249725341796,9.842897467803954,-0.001182556700214691,0.004988593372237244,-0.0015201323397705077,30.200000762939453,63603,,,,-0.04306640475988388,0.12202148139476776,10.142138481140137,-0.0391484834253788,0.004261059686541557,-0.011451597325503826,39.11823654174805,,,,,,,,,,,,,,,,2779096485
-0.06769979248046874,0.02849500732421875,9.8431046875,-0.00021881862946258545,0.00551958108463089,-0.0035173034065231323,30.200000762939453,63604,,,,-0.11005859076976776,0.11723633110523224,10.084716796875,-0.037550587207078934,0.0021305298432707787,-0.010918965563178062,39.11823654174805,,,,,,,,,,,,,,,,2779096485
-0.07807595520019531,0.002928553009033203,9.782808428955077,-0.0011796605125491333,0.005715416634044037,-0.0014316687868687439,30.200000762939453,63605,,,,-0.035888671875,0.16030272841453552,10.060791015625,-0.04048006609082222,0.0055926404893398285,-0.009587383829057217,39.11823654174805,,,,,,,,,,,,,,,,2779096485
-0.05686358184814453,0.007805748748779297,9.891543254089354,-0.0008720654087588501,0.004640005561649628,-0.002700991274801941,30.100000381469727,63606,18.149999618530273,-21.149999618530273,-70.94999694824219,-0.09809570014476776,0.07895507663488388,10.178027153015137,-0.03595269098877907,0.003994743339717388,-0.007456854451447725,39.11823654174805,,,,,,,,,,,,,,,,2779096485
-0.07130084686279296,0.025904032135009764,9.783061855316161,-0.0006229133746887207,0.007321415944671326,-0.0027117304718238832,30.0,63607,,,,-0.09091796725988388,0.08613280951976776,10.14453125,-0.03648532181978226,0.0021305298432707787,-0.011717913672327995,39.11823654174805,,,,,,,,,,,,,,,,2779096485
-0.06862983245849609,0.007435572052001953,9.831166619873047,-0.001657930951526947,0.0033630531172457886,-0.004143259442736359,30.0,63608,,,,-0.06220703199505806,0.11723633110523224,10.027295112609863,-0.037017956376075745,0.0005326324608176947,-0.011717913672327995,39.11823654174805,,,,,,,,,,,,,,,,2779096485
-0.058863851928710936,0.01845698318481445,9.856171977233886,-0.001069625354965973,0.0037952242380711364,-0.0018845260113191224,30.0,63609,,,,-0.01674804650247097,0.12919922173023224,10.099072456359863,-0.03728426992893219,0.001597897382453084,-0.010918965563178062,39.21235275268555,,,,,,,,,,,,,,,,2779096485
-0.07456122055053711,-0.004127234649658203,9.809427617645264,0.0010970425981999207,0.007014047209572143,-0.002175502990021515,29.899999618530273,63610,18.600000381469727,-21.0,-71.0999984741211,-0.15791015326976776,0.07656250149011612,10.151708602905273,-0.03408847749233246,0.0021305298432707787,-0.006924221757799387,39.02411651611328,,,,,,,,,,,,,,,,2779096485
-0.06609306411743164,0.026018315124511717,9.82076058731079,-0.0021223529529315185,0.004058830578858337,-0.0013388576235173035,29.899999618530273,63611,,,,-0.09331054985523224,0.107666015625,10.175634384155273,-0.037017956376075745,0.0013315811520442367,-0.010120016522705555,39.21235275268555,,,,,,,,,,,,,,,,2779096485
-0.06317639923095703,-0.011831859588623046,9.86286435470581,-0.0005592638250732422,0.006569432468638916,-0.001534233777645569,29.899999618530273,63612,,,,-0.095703125,0.16030272841453552,10.056005477905273,-0.038882169872522354,0.0013315811520442367,-0.012250546365976334,39.11823654174805,,,,,,,,,,,,,,,,2779096485
-0.06420341339111328,0.03556380462646484,9.816241717529296,-0.0003042927840612793,0.0037569945608857728,-0.0023416975567057802,29.899999618530273,63613,,,,-0.08613280951976776,0.15312500298023224,10.07275390625,-0.03808322176337242,0.0037284272257238626,-0.011451597325503826,39.11823654174805,,,,,,,,,,,,,,,,2779096485
-0.08169783248901367,0.009206565856933593,9.777852951049804,-0.0005602092472537231,0.006757851114467163,-0.0004481234556452942,29.899999618530273,63614,19.350000381469727,-20.25,-70.80000305175781,0.014355468563735485,0.13876953721046448,10.156494140625,-0.03595269098877907,0.002396845957264304,-0.010386332869529724,39.21235275268555,,,,,,,,,,,,,,,,2779096485
-0.021006761169433594,-0.008789060974121094,9.946204804229737,0.00041627204922683715,0.006237542677971344,-0.0016256600972396852,30.0,63615,,,,-0.011962890625,0.10288085788488388,10.137353897094727,-0.035153742879629135,0.004793691914528608,-0.010386332869529724,39.02411651611328,,,,,,,,,,,,,,,,2779096485
-0.11320550689697265,0.04359542770385742,9.70170810546875,0.000978505298895111,0.0051198206340490725,-0.0033412285122625734,30.100000381469727,63616,,,,-0.09809570014476776,0.12680664658546448,10.115819931030273,-0.036751639097929,0.002396845957264304,-0.010120016522705555,39.11823654174805,,,,,,,,,,,,,,,,2779096485
-0.05487243347167969,0.02901696319580078,9.85481803970337,0.0033275798117697146,0.007020205769550629,-0.0015447798954898071,30.100000381469727,63617,,,,-0.06220703199505806,0.12680664658546448,10.122998237609863,-0.03542005643248558,0.003994743339717388,-0.011717913672327995,39.11823654174805,,,,,,,,,,,,,,,,2779096485
-0.0666631706237793,-0.04649089584350586,9.856115340423584,-0.0016423181697436523,0.004498318734728394,-0.0012474179881178285,30.100000381469727,63618,18.899999618530273,-20.850000381469727,-72.0,-0.06699218600988388,0.11723633110523224,10.032079696655273,-0.037017956376075745,0.001597897382453084,-0.012250546365976334,39.11823654174805,,,,,,,,,,,,,,,,2779096485
-0.08748626403808593,0.03982816390991211,9.805037049865723,0.00047421577624603273,0.00395031342308609,0.000280817019213562,29.899999618530273,63619,,,,-0.10048828274011612,0.06938476860523224,10.14453125,-0.03648532181978226,0.0050600082613527775,-0.011451597325503826,39.11823654174805,,,,,,,,,,,,,,,,2779096485
-0.08029746398925781,-0.032543772888183595,9.853845195007324,-0.0017147894404093934,0.005360423921078796,-0.001347140054450531,29.80000114440918,63620,,,,-0.13637694716453552,0.14116211235523224,10.089502334594727,-0.03728426992893219,0.004261059686541557,-0.01651160605251789,39.11823654174805,,,,,,,,,,,,,,,,2779096485
-0.04325803680419922,0.06962435989379882,9.828371527862549,-0.0013631789420053102,0.004375966457188263,-0.0011637747567559815,29.80000114440918,63621,,,,-0.08613280951976776,0.16987304389476776,10.108642578125,-0.03302321210503578,0.0034621108788996935,-0.009853700175881386,39.02411651611328,,,,,,,,,,,,,,,,2779096485
-0.07923964538574219,-0.03578422088623047,9.815512242889405,-0.001580366385311432,0.004716611389879303,-0.00206576078015625,30.0,63622,18.149999618530273,-20.850000381469727,-70.94999694824219,-0.155517578125,0.12919922173023224,9.979443550109863,-0.03834953531622887,0.0055926404893398285,-0.008788435719907284,39.11823654174805,,,,,,,,,,,,,,,,2779096485
-0.06049301071166992,0.05918584060668945,9.816662549591063,0.0002536527762814331,0.005459786460666809,-0.000263007129546051,30.0,63623,,,,-0.09809570014476776,0.06220703199505806,10.1923828125,-0.036751639097929,-0.0013315811520442367,-0.011185280978679657,39.02411651611328,,,,,,,,,,,,,,,,2779096485
-0.0980371971130371,0.003987792205810547,9.7790215385437,-0.000905927501786499,0.0054246859977407835,0.001006781411574707,30.0,63624,,,,-0.06459961086511612,0.059814453125,10.027295112609863,-0.03488742560148239,0.0018642136128619313,-0.012250546365976334,39.11823654174805,,,,,,,,,,,,,,,,2779096485
-0.05874721374511718,0.003717543029785156,9.90314580001831,-0.00272623804176239,0.005327587145063782,-0.0017931329812384033,30.0,63625,,,,-0.13637694716453552,0.13876953721046448,10.041650772094727,-0.040213748812675476,0.005326324608176947,-0.010386332869529724,39.21235275268555,,,,,,,,,,,,,,,,2779096485
-0.04806401596069336,0.03837280349731445,9.79971745147705,-0.0011390473062045288,0.004469103857770996,-0.0006169478938879394,30.0,63626,18.75,-21.149999618530273,-72.0,-0.09331054985523224,0.01914062537252903,10.139745712280273,-0.035153742879629135,0.002929478418081999,-0.010386332869529724,39.21235275268555,,,,,,,,,,,,,,,,2779096485
-0.07160653610229492,0.043034442901611326,9.812403461456299,0.0015592608338175964,0.00670118570476242,-0.0020831845114683534,30.0,63627,,,,-0.05502929538488388,0.03828125074505806,10.130175590515137,-0.037017956376075745,0.004793691914528608,-0.011984230019152164,39.11823654174805,,,,,,,,,,,,,,,,2779096485
-0.08487891464233398,-0.053198077392578126,9.857968167877196,-0.003327739601434021,0.007504188689027405,-0.0019784557023207095,30.0,63628,,,,-0.05024414137005806,0.06938476860523224,10.16845703125,-0.037017956376075745,0.0037284272257238626,-0.011451597325503826,39.21235275268555,,,,,,,,,,,,,,,,2779096485
-0.05152237548828125,0.06526878356933594,9.843150482940674,-9.761151118331909e-05,0.006521768543356781,-0.0018956713404045106,30.0,63629,,,,-0.11723633110523224,0.18662109971046448,9.936376571655273,-0.03834953531622887,0.002929478418081999,-0.012250546365976334,39.21235275268555,,,,,,,,,,,,,,,,2779096485
-0.09710925064086914,0.0033066551208496093,9.796836450958251,-0.0001848566678947449,0.006352970736724853,-0.0006268814846856689,30.0,63630,17.850000381469727,-21.450000762939453,-71.8499984741211,-0.014355468563735485,0.11245117336511612,10.108642578125,-0.0391484834253788,0.0050600082613527775,-0.010120016522705555,39.11823654174805,,,,,,,,,,,,,,,,2779096485
-0.05094363327026367,-0.037571102905273435,9.907867777252196,-0.001859352481288147,0.007214576580374298,-0.0014405237974324035,30.0,63631,,,,-0.06938476860523224,0.11723633110523224,9.900487899780273,-0.037550587207078934,0.0037284272257238626,-0.008255803026258945,39.11823654174805,,,,,,,,,,,,,,,,2779096485
-0.07476589813232422,0.029842664337158202,9.7922286819458,-0.0004984971473179626,0.007320563733128357,-0.0029884062755708312,29.80000114440918,63632,,,,-0.06459961086511612,0.22968749701976776,10.099072456359863,-0.035686373710632324,0.0013315811520442367,-0.010918965563178062,39.21235275268555,,,,,,,,,,,,,,,,2779096485
-0.10849680099487305,0.0024713088989257812,9.754740422058106,0.0006391519993238831,0.005809506114709931,-0.001538022124270172,29.80000114440918,63633,,,,-0.10527344048023224,0.04306640475988388,10.089502334594727,-0.03648532181978226,0.002929478418081999,-0.011185280978679657,39.11823654174805,,,,,,,,,,,,,,,,2779096485
-0.04483444671630859,0.03844222564697265,9.883029676055909,-0.0006450242694871521,0.005949441913226471,-0.0006261291416828919,29.899999618530273,63634,18.299999237060547,-20.850000381469727,-70.3499984741211,-0.09331054985523224,0.203369140625,10.087109565734863,-0.037550587207078934,0.002396845957264304,-0.013582127168774605,39.11823654174805,,,,,,,,,,,,,,,,2779096485
-0.08736229858398437,-0.009602799224853515,9.810237580108643,-0.00039174433575576783,0.008243502176260834,-0.0015329354866230774,30.200000762939453,63635,,,,-0.10048828274011612,0.07895507663488388,10.101465225219727,-0.035686373710632324,0.0005326324608176947,-0.008522119373083115,39.11823654174805,,,,,,,,,,,,,,,,2779096485
-0.06375768356323241,0.032551212310791014,9.854136267089844,-0.0036834713415966796,0.005821397128895416,-0.004409675418454284,30.200000762939453,63636,,,,0.05263672024011612,0.04545898362994194,10.094286918640137,-0.03595269098877907,0.004527375567704439,-0.009321067482233047,39.11823654174805,,,,,,,,,,,,,,,,2779096485
-0.08487498931884765,-0.007952182006835937,9.822389895629883,-0.001768006056526184,0.006486541580279846,-0.00016213990395248413,30.200000762939453,63637,,,,-0.13876953721046448,0.10288085788488388,10.07275390625,-0.03781690448522568,0.003994743339717388,-0.013582127168774605,39.11823654174805,,,,,,,,,,,,,,,,2779096485
-0.07175375442504883,0.09097352142333984,9.773514085388184,-0.002372690093678589,0.004590883555680695,-0.0016024107010830688,30.200000762939453,63638,17.700000762939453,-22.049999237060547,-70.94999694824219,-0.0478515625,0.107666015625,10.134961128234863,-0.03941480070352554,0.0026631623040884733,-0.007456854451447725,39.11823654174805,,,,,,,,,,,,,,,,2779096485
-0.04943092575073242,-0.008219627380371094,9.901214727783202,-0.0032497023241282656,0.006461594418939972,-0.0029643978785087585,30.200000762939453,63639,,,,-0.02153320237994194,0.13398437201976776,10.268945693969727,-0.037017956376075745,0.0037284272257238626,-0.009853700175881386,39.11823654174805,,,,,,,,,,,,,,,,2779096485
-0.10429636840820312,0.039749395751953125,9.727529219818114,0.00032343425426467897,0.0077120018053608705,-0.003977417744894104,30.200000762939453,63640,,,,-0.08134765923023224,0.06459961086511612,10.158886909484863,-0.03781690448522568,0.0037284272257238626,-0.010918965563178062,39.02411651611328,,,,,,,,,,,,,,,,2779096485
-0.024020250701904295,0.01871859664916992,9.891992572784423,-0.001895604761377716,0.008485137438205871,-0.0004436227134339905,30.100000381469727,63641,,,,-0.06938476860523224,0.155517578125,10.256982803344727,-0.03728426992893219,0.0037284272257238626,-0.013049494475126266,39.21235275268555,,,,,,,,,,,,,,,,2779096485
-0.05787354888916015,0.0007085769653320313,9.884218189239501,-0.005125340035370331,0.00456606955239441,-0.004495402573354798,30.0,63642,18.149999618530273,-21.450000762939453,-71.25,-0.12680664658546448,0.12202148139476776,10.036865234375,-0.03834953531622887,0.0026631623040884733,-0.010386332869529724,39.11823654174805,,,,,,,,,,,,,,,,2779096485
-0.09293450088500976,0.09029380493164062,9.715220975494384,0.0014005963550637818,0.009886066688403626,-0.0017292770366398621,30.0,63643,,,,-0.07177734375,0.20576171576976776,9.948339462280273,-0.03941480070352554,0.005326324608176947,-0.011185280978679657,39.11823654174805,,,,,,,,,,,,,,,,2779096485
-0.0684457908630371,-0.06262909698486328,9.896288858032227,-0.005595614333230133,0.005698099429174805,-0.0021458087440711974,30.200000762939453,63644,,,,-0.06220703199505806,0.13398437201976776,10.070361137390137,-0.03861585259437561,-0.0005326324608176947,-0.012783179059624672,39.21235275268555,,,,,,,,,,,,,,,,2779096485
-0.04441922225952148,0.04826521682739258,9.8462914894104,8.029430631408691e-06,0.008639281201040344,-0.0005427189369148254,30.30000114440918,63645,,,,-0.08613280951976776,0.13876953721046448,10.075146675109863,-0.037550587207078934,0.0013315811520442367,-0.012250546365976334,39.11823654174805,,,,,,,,,,,,,,,,2779096485
-0.08791490936279296,0.01737120132446289,9.806697087860107,0.0010571151558312988,0.008084870987020416,-0.002627394818583374,30.30000114440918,63646,18.450000762939453,-21.0,-71.8499984741211,-0.05263672024011612,0.17705078423023224,9.955517768859863,-0.034354791045188904,0.007989486679434776,-0.011451597325503826,39.11823654174805,,,,,,,,,,,,,,,,2779096485
-0.05634921493530273,-0.0039747825622558595,9.864936065673827,-0.0038363101555059817,0.005814386357373962,-0.0023320902031393432,30.30000114440918,63647,,,,-0.11962890625,0.08852539211511612,10.333544731140137,-0.040746383368968964,-0.0021305298432707787,-0.011451597325503826,39.21235275268555,,,,,,,,,,,,,,,,2779096485
-0.04674536895751953,0.015977375030517577,9.824602507019042,0.0013479390027720643,0.010868333702312622,-0.002371038933814087,30.100000381469727,63648,,,,-0.11484374850988388,0.107666015625,10.16845703125,-0.032490577548742294,0.007989486679434776,-0.008522119373083115,39.11823654174805,,,,,,,,,,,,,,,,2779096485
