adisAccelX,adisAccelY,adisAccelZ,adisGyroX,adisGyroY,adisGyroZ,adisTemp,adisDataCNT,lsmMagX,lsmMagY,lsmMagZ,mpuAccelX,mpuAccelY,mpuAccelZ,mpuGyroX,mpuGyroY,mpuGyroZ,mpuTemp,year,month,day,hour,min,sec,fixType,fLon,fLat,height,hMSL,hAcc,vAcc,gSpeed,headMot,padding
-0.08633195724487304,0.007755205535888671,9.835260433197021,-0.0018692194930590821,0.00710690497824234,-0.001441009824328003,30.0,24266,,,,-0.12202148139476776,0.10048828274011612,10.060791015625,-0.037550587207078934,0.0026631623040884733,-0.009321067482233047,39.58882522583008,,,,,,,,,,,,,,,,2779096485
-0.08400248336791992,0.004145291137695312,9.82864873046875,-0.0023225427706970213,0.007308126770923157,-0.002792217857315674,30.30000114440918,24267,15.149999618530273,-21.0,-70.80000305175781,-0.08613280951976776,0.06459961086511612,10.003369331359863,-0.03355584293603897,0.0018642136128619313,-0.01704423874616623,39.49470520019531,,,,,,,,,,,,,,,,2779096485
-0.08702225341796875,0.005508724212646484,9.825032124328613,-0.0029876672483734133,0.00628555281419281,-0.002602434341438141,30.399999618530273,24268,,,,-0.12680664658546448,0.10048828274011612,10.101465225219727,-0.0391484834253788,0.004527375567704439,-0.010918965563178062,39.58882522583008,,,,,,,,,,,,,,,,2779096485
-0.08109351959228515,0.0041537399291992185,9.831634742736815,-0.0020302808167774965,0.006920949756405487,-0.0017929132704499818,30.399999618530273,24269,,,,-0.04545898362994194,0.11723633110523224,9.991406440734863,-0.03861585259437561,0.004527375567704439,-0.010652649216353893,39.58882522583008,,,,,,,,,,,,,,,,2779096485
-0.08512535018920898,0.0020741783142089842,9.82974337234497,-0.003214781624574585,0.007189243260679016,-0.001975446330309601,30.200000762939453,24270,,,,-0.10527344048023224,0.11005859076976776,10.041650772094727,-0.037017956376075745,0.0010652649216353893,-0.011984230019152164,39.58882522583008,,,,,,,,,,,,,,,,2779096485
-0.08310762176513671,0.006984832763671875,9.834712794494628,-0.0008249207998857116,0.007917924077333374,-0.0010852248209439086,30.0,24271,15.300000190734863,-19.950000762939453,-71.0999984741211,-0.107666015625,0.13876953721046448,10.0966796875,-0.03808322176337242,0.0055926404893398285,-0.011185280978679657,39.49470520019531,,,,,,,,,,,,,,,,2779096485
-0.0824220359802246,0.0005145538330078125,9.829383065032959,-0.002045460834886627,0.007903849271069031,-0.0026205238630181886,30.0,24272,,,,-0.13637694716453552,0.12680664658546448,10.154101371765137,-0.03542005643248558,0.002929478418081999,-0.010652649216353893,39.49470520019531,,,,,,,,,,,,,,,,2779096485
-0.0847451919555664,0.0017155532836914062,9.828029426574707,-0.0015202987873374938,0.007275949127273407,-0.002710711812713928,30.0,24273,,,,-0.10527344048023224,0.08852539211511612,10.101465225219727,-0.034354791045188904,0.004793691914528608,-0.013049494475126266,39.49470520019531,,,,,,,,,,,,,,,,2779096485
-0.0810032371520996,0.0012433929443359374,9.828700469970704,-0.0024791100101068117,0.0065850119609088134,0.000555355636200409,30.0,24274,,,,-0.08134765923023224,0.06459961086511612,10.0966796875,-0.038882169872522354,0.003195794764906168,-0.010386332869529724,39.58882522583008,,,,,,,,,,,,,,,,2779096485
-0.08227302322387695,-0.00015675125122070313,9.829556900787352,-0.0023929700652401734,0.007367808210541687,-0.0023457455615348817,30.0,24275,15.600000381469727,-19.799999237060547,-71.0999984741211,-0.02392578125,0.07656250149011612,10.127782821655273,-0.03834953531622887,0.005858956836163998,-0.007456854451447725,39.49470520019531,,,,,,,,,,,,,,,,2779096485
-0.08084364471435547,0.006586917114257813,9.832576222229003,0.00020975722391586304,0.007870040441262818,-0.0012629309013609314,30.100000381469727,24276,,,,-0.095703125,0.10048828274011612,10.087109565734863,-0.03621900454163551,0.005858956836163998,-0.011451597325503826,39.49470520019531,,,,,,,,,,,,,,,,2779096485
-0.0784730484008789,0.004000914001464843,9.829243846893311,-0.001920305580318451,0.007935947019886628,-0.0018605309300624084,30.200000762939453,24280,15.149999618530273,-20.399999618530273,-69.9000015258789,-0.059814453125,0.14833983778953552,10.039258003234863,-0.03781690448522568,0.0055926404893398285,-0.01491370890289545,39.58882522583008,,,,,,,,,,,,,,,,2779096485
-0.08538558044433593,0.004884747314453125,9.82727598876953,-0.001920305580318451,0.007935947019886628,-0.0036058601700624084,30.200000762939453,24281,,,,-0.11005859076976776,0.12202148139476776,10.156494140625,-0.037550587207078934,0.0050600082613527775,-0.007190538104623556,39.58882522583008,,,,,,,,,,,,,,,,2779096485
-0.08281662445068359,0.008022463989257812,9.824911486053466,-0.0018332401869793702,0.007770364980248871,-0.001975419698698883,30.200000762939453,24282,,,,-0.0478515625,0.11484374850988388,10.149316787719727,-0.03861585259437561,0.005326324608176947,-0.008255803026258945,39.40058898925781,,,,,,,,,,,,,,,,2779096485
-0.0842630126953125,0.005328907012939453,9.829807747650147,-0.0004647082912197876,0.008620006572783355,-0.002528837885219574,30.100000381469727,24283,15.0,-20.100000381469727,-71.0999984741211,-0.10048828274011612,0.15073242783546448,10.099072456359863,-0.03621900454163551,0.0034621108788996935,-0.007723170332610607,39.49470520019531,,,,,,,,,,,,,,,,2779096485
-0.08186621017456054,0.005159407806396484,9.824184964752197,-0.00037424736751419065,0.007370870845774231,-0.0018002502792027282,30.100000381469727,24284,,,,-0.10048828274011612,0.12919922173023224,10.103857040405273,-0.037550587207078934,0.006125273182988167,-0.010120016522705555,39.58882522583008,,,,,,,,,,,,,,,,2779096485
-0.07596525268554687,0.007412356567382812,9.827244025421143,-0.0002886467127645874,0.007911212911432495,-0.00153075169454422,30.100000381469727,24285,,,,-0.03349609300494194,0.11005859076976776,10.137353897094727,-0.03621900454163551,0.0055926404893398285,-0.012783179059624672,39.49470520019531,,,,,,,,,,,,,,,,2779096485
-0.07984302368164062,0.007710008239746094,9.832668411254883,0.0001256812288798523,0.00859315525127716,-0.0016269850198728944,30.100000381469727,24286,,,,-0.131591796875,0.11962890625,10.201952934265137,-0.038882169872522354,0.006924221757799387,-0.014647392556071281,39.58882522583008,,,,,,,,,,,,,,,,2779096485
-0.08660145874023437,0.004527131652832031,9.826635861968994,-0.0026666964181001284,0.007489807619239807,-0.0035157188256854247,30.0,24287,15.449999809265137,-19.200000762939453,-70.94999694824219,-0.083740234375,0.08134765923023224,10.029687881469727,-0.037017956376075745,0.005326324608176947,-0.011185280978679657,39.58882522583008,,,,,,,,,,,,,,,,2779096485
-0.08626257247924804,0.01093337173461914,9.831935459899903,-0.0007596001166976929,0.00793687246835907,-0.0018041118627568054,30.0,24288,,,,-0.083740234375,0.10527344048023224,10.029687881469727,-0.03728426992893219,0.003195794764906168,-0.009853700175881386,39.58882522583008,,,,,,,,,,,,,,,,2779096485
-0.08697686920166016,0.008913101196289063,9.827079348754882,-0.0015333882240052795,0.007503789214866639,-0.0019801135200878906,30.100000381469727,24289,,,,-0.095703125,0.095703125,10.051220893859863,-0.034354791045188904,0.004793691914528608,-0.011984230019152164,39.58882522583008,,,,,,,,,,,,,,,,2779096485
-0.08420846939086914,0.0076839515686035155,9.835259236907959,-0.0005488774968933106,0.007374492744831848,-0.001346840448829956,30.200000762939453,24290,,,,-0.14833983778953552,0.083740234375,10.084716796875,-0.03834953531622887,0.004527375567704439,-0.009587383829057217,39.58882522583008,,,,,,,,,,,,,,,,2779096485
-0.08568218536376952,0.008906783294677733,9.835418941497803,-0.0011624431762200928,0.008617809464899139,-0.0027075359931358336,30.200000762939453,24291,15.600000381469727,-20.25,-70.3499984741211,-0.14833983778953552,0.13876953721046448,10.02490234375,-0.038882169872522354,0.003994743339717388,-0.010652649216353893,39.49470520019531,,,,,,,,,,,,,,,,2779096485
-0.08767505340576172,0.0053381034851074215,9.830748890686035,-0.0007673832049299622,0.007199776062717896,-0.0020741031322135924,30.100000381469727,24292,,,,-0.10288085788488388,0.11723633110523224,10.046435356140137,-0.035153742879629135,0.0055926404893398285,-0.010652649216353893,39.49470520019531,,,,,,,,,,,,,,,,2779096485
-0.08633950881958008,0.009698726654052733,9.828366481018065,-0.0003389338517024231,0.007923157188839416,-0.00035786892692276,30.0,24293,,,,-0.13398437201976776,0.07656250149011612,9.974658012390137,-0.03834953531622887,0.006657905410975218,-0.003994743339717388,39.49470520019531,,,,,,,,,,,,,,,,2779096485
-0.08471259307861329,0.007554341125488281,9.830102408599853,-0.001995766249287262,0.008165511504273835,-0.003341581381104584,30.0,24294,15.149999618530273,-20.25,-70.3499984741211,-0.12441406399011612,0.11962890625,10.087109565734863,-0.03595269098877907,0.004793691914528608,-0.016245288774371147,39.58882522583008,,,,,,,,,,,,,,,,2779096485
-0.08687525939941405,0.009484478759765625,9.828587869262694,-0.0010569021029455566,0.007393760715186157,-0.0021588582333229066,30.200000762939453,24295,,,,-0.10288085788488388,0.12680664658546448,10.106249809265137,-0.03595269098877907,0.004527375567704439,-0.011984230019152164,39.58882522583008,,,,,,,,,,,,,,,,2779096485
-0.0870444969177246,0.01002456588745117,9.83057352218628,-0.0014596519518304443,0.007993111772292328,-0.002156374835623474,30.30000114440918,24296,,,,-0.059814453125,0.107666015625,10.108642578125,-0.03781690448522568,0.004793691914528608,-0.012516862712800503,39.58882522583008,,,,,,,,,,,,,,,,2779096485
-0.08855671844482421,0.01144190673828125,9.827674128723144,-0.0005870672266625977,0.00790278400664032,-0.0023402195023109434,30.30000114440918,24297,,,,-0.05263672024011612,0.12680664658546448,10.082324028015137,-0.03648532181978226,0.006924221757799387,-0.006924221757799387,39.49470520019531,,,,,,,,,,,,,,,,2779096485
-0.08584409561157226,0.011616789245605469,9.827616370391846,-0.0021867748192578125,0.007757801517892762,-0.0024274446853143313,30.200000762939453,24298,15.0,-19.799999237060547,-69.9000015258789,-0.07416991889476776,0.12919922173023224,9.986620903015137,-0.03542005643248558,0.008255803026258945,-0.011717913672327995,39.49470520019531,,,,,,,,,,,,,,,,2779096485
-0.08925224838256836,0.010672431182861328,9.831047551727295,-0.0009265536842874146,0.008848579029671325,-0.002077505320482788,30.0,24299,,,,-0.0478515625,0.11245117336511612,10.125391006469727,-0.03595269098877907,0.006125273182988167,-0.009853700175881386,39.58882522583008,,,,,,,,,,,,,,,,2779096485
-0.09109715042114258,0.007901451873779296,9.83233902053833,-0.0023906730888157653,0.007526945400385742,-0.0022475281812077332,30.0,24300,,,,-0.06459961086511612,0.09809570014476776,10.132568359375,-0.03834953531622887,0.006391589529812336,-0.007723170332610607,39.49470520019531,,,,,,,,,,,,,,,,2779096485
-0.09152388916015625,0.010573737335205077,9.826674890899659,-0.0021052155114346313,0.008100031031421508,-0.0033350233469653322,30.100000381469727,24301,,,,-0.12202148139476776,0.14594726264476776,10.146924018859863,-0.03808322176337242,0.004793691914528608,-0.013049494475126266,39.49470520019531,,,,,,,,,,,,,,,,2779096485
-0.0861173728942871,0.01131738052368164,9.826211254119873,-0.001025117275553894,0.00844867876313324,-0.0013444036564492798,30.200000762939453,24302,14.850000381469727,-20.100000381469727,-71.25,-0.131591796875,0.15312500298023224,10.163671493530273,-0.03648532181978226,0.004793691914528608,-0.011717913672327995,39.49470520019531,,,,,,,,,,,,,,,,2779096485
-0.0871461441040039,0.006459063720703125,9.831087029266357,-0.0010213355868319701,0.007019380189618378,-0.0007054447363031006,30.200000762939453,24303,,,,-0.11962890625,0.13876953721046448,10.077539443969727,-0.03621900454163551,0.004261059686541557,-0.013049494475126266,39.68294143676758,,,,,,,,,,,,,,,,2779096485
-0.08615142974853515,0.009577751922607422,9.827182566070556,-0.0003317632905166626,0.008175232042185822,-0.00089347722377594,30.200000762939453,24304,,,,-0.10048828274011612,0.16748046875,9.943554878234863,-0.03728426992893219,0.004527375567704439,-0.009853700175881386,39.49470520019531,,,,,,,,,,,,,,,,2779096485
-0.08439501571655274,0.004092467498779296,9.826466437530517,-0.0008771054410871887,0.00902278305327896,-0.0024359668007440187,30.100000381469727,24305,,,,-0.09331054985523224,0.11484374850988388,10.017724990844727,-0.03808322176337242,0.004793691914528608,-0.011984230019152164,39.58882522583008,,,,,,,,,,,,,,,,2779096485
-0.08392950973510742,0.007379010009765625,9.826901139068603,-0.0021811289177856444,0.007411364209870605,-0.00197294961680481,30.100000381469727,24306,15.449999809265137,-19.950000762939453,-70.3499984741211,-0.05502929538488388,0.11245117336511612,10.146924018859863,-0.04048006609082222,0.005326324608176947,-0.008788435719907284,39.58882522583008,,,,,,,,,,,,,,,,2779096485
-0.08796522827148437,0.00891295166015625,9.827633753967286,-0.0026181669654696655,0.007682966691775818,-0.0016101272102885438,30.100000381469727,24307,,,,-0.07895507663488388,0.06938476860523224,10.029687881469727,-0.03488742560148239,0.006125273182988167,-0.009054751135408878,39.49470520019531,,,,,,,,,,,,,,,,2779096485
-0.08480717468261718,0.006100177001953125,9.827549303436278,-0.0034901724531044005,0.007508110193705597,-0.000972526502288971,30.100000381469727,24308,,,,-0.08852539211511612,0.15791015326976776,10.103857040405273,-0.037550587207078934,0.004261059686541557,-0.013315810821950436,39.58882522583008,,,,,,,,,,,,,,,,2779096485
-0.08779763565063477,0.006267545318603515,9.82625054473877,-0.0009609217779187011,0.007600981278181152,-0.0008910803788113403,30.100000381469727,24309,,,,-0.13637694716453552,0.07416991889476776,10.125391006469727,-0.035153742879629135,0.0037284272257238626,-0.013049494475126266,39.49470520019531,,,,,,,,,,,,,,,,2779096485
-0.08595049057006836,0.007813412475585937,9.826611749267578,-0.00026383936738098146,0.00786988065159851,-0.0009850100698129273,30.100000381469727,24310,15.0,-20.25,-70.80000305175781,-0.12441406399011612,0.12441406399011612,10.12060546875,-0.03834953531622887,0.005326324608176947,-0.010386332869529724,39.49470520019531,,,,,,,,,,,,,,,,2779096485
-0.08447774658203125,0.006655255126953125,9.82522932510376,-0.0011118364579536437,0.006636550785550385,-0.002515528737763367,30.200000762939453,24311,,,,-0.04067382961511612,0.13876953721046448,10.115819931030273,-0.034354791045188904,0.004793691914528608,-0.007989486679434776,39.49470520019531,,,,,,,,,,,,,,,,2779096485
-0.0845596549987793,0.0033480766296386717,9.82188169708252,-0.0008521849113580322,0.0072697506198788455,-0.0018847057746914672,30.200000762939453,24312,,,,-0.02631836012005806,0.07416991889476776,10.02490234375,-0.03808322176337242,0.005858956836163998,-0.010918965563178062,39.49470520019531,,,,,,,,,,,,,,,,2779096485
-0.07999700851440429,0.005158174133300781,9.82265853729248,-0.001575173221221466,0.009027416953543853,-0.0017996044626428223,30.200000762939453,24313,,,,-0.095703125,0.12680664658546448,10.070361137390137,-0.035686373710632324,0.005326324608176947,-0.009587383829057217,39.49470520019531,,,,,,,,,,,,,,,,2779096485
-0.0857274200439453,0.002172199249267578,9.828158139801024,-0.0008998954419589234,0.008346799536332397,-0.0029791850803598022,30.100000381469727,24314,15.75,-20.399999618530273,-70.5,-0.05024414137005806,0.16030272841453552,10.065576553344727,-0.03808322176337242,0.002396845957264304,-0.012516862712800503,39.49470520019531,,,,,,,,,,,,,,,,2779096485
-0.08128129959106445,0.005078060150146484,9.829210724639893,-0.001014724289471283,0.009121280065518647,-0.0016253338600083923,30.0,24315,,,,-0.10527344048023224,0.12202148139476776,10.075146675109863,-0.03968111798167229,0.003195794764906168,-0.010120016522705555,39.49470520019531,,,,,,,,,,,,,,,,2779096485
-0.08332142105102538,0.0052533912658691406,9.832990437316894,-0.0013576861722947693,0.006886934531616211,-0.0007106578741011047,30.0,24316,,,,-0.1435546875,0.10048828274011612,10.058398246765137,-0.037550587207078934,0.0018642136128619313,-0.011185280978679657,39.49470520019531,,,,,,,,,,,,,,,,2779096485
-0.08433501434326171,0.010229991149902343,9.830792181396484,-0.0003855058809451294,0.006003444161859436,-0.0013439642348724366,30.100000381469727,24317,,,,-0.05502929538488388,0.11962890625,10.137353897094727,-0.03621900454163551,0.005858956836163998,-0.012250546365976334,39.58882522583008,,,,,,,,,,,,,,,,2779096485
-0.07826455764770508,0.005316570281982421,9.82771259689331,-0.0004607534970281983,0.007102557367792663,-0.0017084444591558838,30.100000381469727,24318,15.149999618530273,-20.700000762939453,-70.94999694824219,-0.09809570014476776,0.16508789360523224,10.127782821655273,-0.035686373710632324,0.002396845957264304,-0.014381076209247112,39.49470520019531,,,,,,,,,,,,,,,,2779096485
-0.08140298461914063,0.005419451141357422,9.827483470153808,-0.0012464858817427063,0.0076230921729795835,-0.003699962966533661,30.100000381469727,24319,,,,-0.08613280951976776,0.155517578125,10.060791015625,-0.03728426992893219,0.004793691914528608,-0.010652649216353893,39.49470520019531,,,,,,,,,,,,,,,,2779096485
-0.07705753936767577,0.0013948356628417967,9.832649046325683,-0.0005509481046266175,0.006377165555061951,-0.0016154735061401368,30.100000381469727,24320,,,,-0.10048828274011612,0.16508789360523224,10.127782821655273,-0.03648532181978226,0.002396845957264304,-0.008255803026258945,39.58882522583008,,,,,,,,,,,,,,,,2779096485
-0.0825894416809082,0.0055467811584472655,9.835278227996826,-0.000662501264020691,0.007955234963948975,-0.0017130317541020203,30.0,24321,,,,-0.08613280951976776,0.14116211235523224,9.97705078125,-0.03648532181978226,0.007190538104623556,-0.011451597325503826,39.49470520019531,,,,,,,,,,,,,,,,2779096485
-0.0785662467956543,0.008396603393554688,9.835255573272704,-0.0022287595535543823,0.006439290444963837,-0.0005249290209553528,30.0,24322,15.899999618530273,-20.700000762939453,-70.80000305175781,-0.05742187425494194,0.16030272841453552,10.032079696655273,-0.03781690448522568,0.006391589529812336,-0.011984230019152164,39.49470520019531,,,,,,,,,,,,,,,,2779096485
-0.07919515838623047,0.002433924865722656,9.833794866943359,-0.0014476677270074464,0.00812621656265976,-0.0026165424372158815,30.0,24323,,,,-0.14116211235523224,0.15312500298023224,9.979443550109863,-0.037550587207078934,0.0034621108788996935,-0.012250546365976334,39.58882522583008,,,,,,,,,,,,,,,,2779096485
-0.08260719909667968,0.0032803741455078124,9.83020203704834,-0.0012318185221398925,0.009031125405336304,-0.0003522363412559509,30.200000762939453,24324,,,,-0.11723633110523224,0.08852539211511612,10.051220893859863,-0.03861585259437561,0.006657905410975218,-0.009321067482233047,39.49470520019531,,,,,,,,,,,,,,,,2779096485
-0.08164422378540039,0.004469597625732422,9.82926485671997,-0.00047386956530670165,0.006618108395128327,-0.0028854085211198425,30.200000762939453,24325,,,,-0.02631836012005806,0.10288085788488388,10.046435356140137,-0.038882169872522354,0.0055926404893398285,-0.010652649216353893,39.49470520019531,,,,,,,,,,,,,,,,2779096485
-0.08204146652221679,0.004323201751708985,9.828138438415527,-0.0014480272537521362,0.00830251116770874,-0.002979418106953583,30.200000762939453,24326,15.0,-19.950000762939453,-70.5,-0.05742187425494194,0.12919922173023224,10.029687881469727,-0.037550587207078934,0.006924221757799387,-0.012250546365976334,39.49470520019531,,,,,,,,,,,,,,,,2779096485
-0.07815767669677734,0.0032142791748046872,9.828252123260498,-0.00044384908212509157,0.007168450630611114,-0.0006283861706912232,30.100000381469727,24327,,,,-0.08852539211511612,0.11484374850988388,10.065576553344727,-0.0391484834253788,0.002396845957264304,-0.011984230019152164,39.49470520019531,,,,,,,,,,,,,,,,2779096485
-0.08092861862182617,0.004226227569580078,9.828979653930663,0.0008556470207513428,0.008847134264789886,-0.002722229984349365,30.0,24328,,,,-0.06459961086511612,0.12680664658546448,10.084716796875,-0.037017956376075745,0.0055926404893398285,-0.009321067482233047,39.58882522583008,,,,,,,,,,,,,,,,2779096485
-0.07988751068115234,0.0009678726196289062,9.827798505401612,-0.001581178649438324,0.006872919646475983,-0.0026162628053033447,30.0,24329,,,,-0.02392578125,0.155517578125,10.077539443969727,-0.03728426992893219,0.004261059686541557,-0.011984230019152164,39.49470520019531,,,,,,,,,,,,,,,,2779096485
-0.08030243606567383,0.006614581298828125,9.833028344726563,-0.0027853469017504883,0.007809473500587921,-0.001889013437725067,30.100000381469727,24330,14.699999809265137,-20.850000381469727,-71.25,-0.083740234375,0.18901367485523224,10.115819931030273,-0.037550587207078934,0.0055926404893398285,-0.012516862712800503,39.58882522583008,,,,,,,,,,,,,,,,2779096485
-0.08252585144042969,0.005945780944824218,9.826610777282715,-0.0010349842873248292,0.0076330124479719545,-0.002799668050413971,30.100000381469727,24331,,,,-0.09809570014476776,0.107666015625,10.067968368530273,-0.03861585259437561,0.002929478418081999,-0.011717913672327995,39.49470520019531,,,,,,,,,,,,,,,,2779096485
-0.0845669448852539,0.0007452133178710937,9.826257572937012,-0.00042312968898666384,0.006847106957787781,-0.0003538009483856201,30.100000381469727,24332,,,,-0.08852539211511612,0.10288085788488388,10.02490234375,-0.03595269098877907,0.003994743339717388,-0.012250546365976334,39.49470520019531,,,,,,,,,,,,,,,,2779096485
-0.08429516296386719,0.008200225067138672,9.82820744934082,-0.0009624797271456909,0.007603790913111878,-0.003163449194916077,30.100000381469727,24333,,,,-0.07656250149011612,0.05502929538488388,10.058398246765137,-0.03621900454163551,0.0055926404893398285,-0.008255803026258945,39.58882522583008,,,,,,,,,,,,,,,,2779096485
-0.08247246704101563,0.002646752166748047,9.82918197631836,-0.002542746243916931,0.0073369954369412235,-0.0006221410579779052,30.0,24334,14.850000381469727,-20.100000381469727,-71.25,-0.12680664658546448,0.07656250149011612,10.039258003234863,-0.03781690448522568,0.0026631623040884733,-0.011717913672327995,39.58882522583008,,,,,,,,,,,,,,,,2779096485
-0.0817124496459961,0.007013954925537109,9.825460208892823,-0.0020089488965925597,0.0074287546516693115,-0.0025252426177726746,30.0,24335,,,,-0.08852539211511612,0.131591796875,10.017724990844727,-0.03621900454163551,0.004527375567704439,-0.013315810821950436,39.58882522583008,,,,,,,,,,,,,,,,2779096485
-0.08242854080200195,0.005020413970947266,9.829453533935547,-0.0011057977402233886,0.0070361048411491395,-0.0022525615556333923,30.100000381469727,24336,,,,-0.09091796725988388,0.07656250149011612,10.137353897094727,-0.03621900454163551,0.0055926404893398285,-0.010120016522705555,39.58882522583008,,,,,,,,,,,,,,,,2779096485
-0.08327768173217773,0.00479173583984375,9.825723878479003,-0.0006950184607070923,0.008051974289881287,-0.001708238064172821,30.200000762939453,24337,,,,-0.15312500298023224,0.10048828274011612,10.048828125,-0.036751639097929,0.006657905410975218,-0.01491370890289545,39.49470520019531,,,,,,,,,,,,,,,,2779096485
-0.08758211669921875,0.0025612174987792967,9.831183367919921,-0.0014593390304045105,0.007648871572154389,-0.0004344414656390381,30.200000762939453,24338,15.0,-19.350000381469727,-70.6500015258789,-0.03349609300494194,0.11962890625,10.060791015625,-0.03648532181978226,0.006391589529812336,-0.007190538104623556,39.49470520019531,,,,,,,,,,,,,,,,2779096485
-0.08433370590209961,0.003258915710449219,9.837062418365479,-0.0006718023540638733,0.007091179012113495,-0.002880461699429016,30.200000762939453,24339,,,,-0.11723633110523224,0.13637694716453552,10.029687881469727,-0.034354791045188904,0.0055926404893398285,-0.010652649216353893,39.49470520019531,,,,,,,,,,,,,,,,2779096485
-0.08427519989013671,0.005984548187255859,9.833156721496582,-0.0026801586973179627,0.007725217742179566,-0.0018794992947961425,30.200000762939453,24340,,,,-0.08613280951976776,0.12919922173023224,10.075146675109863,-0.03861585259437561,0.006125273182988167,-0.014647392556071281,38.83588409423828,,,,,,,,,,,,,,,,2779096485
-0.08779871978759765,0.007854273223876954,9.833236424255372,-0.0012832508203385925,0.007277493760695038,-0.0019733424330628966,30.200000762939453,24341,,,,-0.12441406399011612,0.11245117336511612,10.075146675109863,-0.03941480070352554,0.004261059686541557,-0.014647392556071281,39.58882522583008,,,,,,,,,,,,,,,,2779096485
-0.0859462661743164,0.005943949127197265,9.829298091125487,-0.0002391252326348877,0.008429717056302185,-0.0037017472844517517,30.200000762939453,24342,15.300000190734863,-20.549999237060547,-70.6500015258789,-0.15073242783546448,0.14833983778953552,10.113428115844727,-0.03542005643248558,0.004261059686541557,-0.008522119373083115,39.49470520019531,,,,,,,,,,,,,,,,2779096485
-0.08573186874389647,0.004626760101318359,9.823477172851563,-0.0018532671582391358,0.007992945324725342,-0.0033364348223333742,30.100000381469727,24343,,,,-0.06938476860523224,0.17465820908546448,10.020116806030273,-0.03728426992893219,0.006125273182988167,-0.009054751135408878,39.58882522583008,,,,,,,,,,,,,,,,2779096485
-0.0849017562866211,0.005123519134521484,9.828322480010986,-0.00010989534162689209,0.0064714614307109074,-0.0021602697086909486,30.0,24344,,,,-0.10288085788488388,0.11245117336511612,9.996191024780273,-0.036751639097929,0.004261059686541557,-0.011717913672327995,39.58882522583008,,,,,,,,,,,,,,,,2779096485
-0.08656616821289062,0.004917607879638672,9.828095334625244,-0.0005780058211158752,0.007055991996452637,-0.0009861086237550353,30.0,24345,14.399999618530273,-20.100000381469727,-71.0999984741211,-0.08852539211511612,0.11005859076976776,9.981836318969727,-0.03781690448522568,0.0055926404893398285,-0.010918965563178062,39.68294143676758,,,,,,,,,,,,,,,,2779096485
-0.08898525161743163,0.006365267181396484,9.826368603515625,-0.001319689521703186,0.006876967651305084,-0.0021643643188388063,30.0,24346,,,,-0.09091796725988388,0.12202148139476776,9.986620903015137,-0.03488742560148239,0.0013315811520442367,-0.010652649216353893,39.49470520019531,,,,,,,,,,,,,,,,2779096485
-0.08345731201171874,0.010347377014160155,9.82361545639038,-0.0021913554563012696,0.006863991398982849,-0.003610314306954956,30.0,24347,,,,-0.083740234375,0.12919922173023224,10.070361137390137,-0.038882169872522354,0.0026631623040884733,-0.012250546365976334,39.49470520019531,,,,,,,,,,,,,,,,2779096485
-0.08582742233276366,0.009122227478027344,9.819483997344971,-0.00044930190441955567,0.0074233817242070005,-0.0012636699285583496,30.0,24348,,,,-0.14594726264476776,0.083740234375,10.0966796875,-0.0391484834253788,0.005326324608176947,-0.012250546365976334,39.49470520019531,,,,,,,,,,,,,,,,2779096485
-0.08856479339599609,0.008692759704589843,9.82269599609375,-0.0014001169860708618,0.006170444334767914,-0.001889446201399231,30.100000381469727,24349,15.0,-19.799999237060547,-70.94999694824219,-0.095703125,0.10048828274011612,10.060791015625,-0.03488742560148239,0.004527375567704439,-0.011984230019152164,39.49470520019531,,,,,,,,,,,,,,,,2779096485
-0.08475992126464843,0.009560069274902343,9.82382809677124,-0.0014340523160279847,0.00754957561159317,-0.0021685854291375734,30.100000381469727,24350,,,,-0.10288085788488388,0.16030272841453552,9.981836318969727,-0.038882169872522354,0.004261059686541557,-0.011984230019152164,39.49470520019531,,,,,,,,,,,,,,,,2779096485
-0.08430966796875,0.010877482604980468,9.821428228759766,-0.00021068267238830566,0.006660945340967865,-0.0013546368528675843,30.100000381469727,24351,,,,-0.12202148139476776,0.1435546875,10.087109565734863,-0.036751639097929,0.0034621108788996935,-0.009321067482233047,39.49470520019531,,,,,,,,,,,,,,,,2779096485
-0.08519122085571289,0.012378563690185546,9.828067969512938,-0.0010935205676824951,0.006824942799767914,-0.0009908091030467225,30.100000381469727,24352,,,,-0.083740234375,0.11005859076976776,10.154101371765137,-0.03728426992893219,0.005326324608176947,-0.013848443515598774,39.49470520019531,,,,,,,,,,,,,,,,2779096485
-0.08170684204101562,0.009417150115966796,9.826826819610595,2.104563036972046e-05,0.008328610146212159,-0.00045795717790283205,30.0,24353,15.149999618530273,-20.100000381469727,-70.6500015258789,-0.083740234375,0.12202148139476776,10.012939453125,-0.03781690448522568,0.004793691914528608,-0.008788435719907284,39.58882522583008,,,,,,,,,,,,,,,,2779096485
-0.0868493522644043,0.010024229431152344,9.8319837600708,-0.0011120095634233093,0.008309308886344452,-0.0026274813713182067,30.0,24354,,,,-0.09809570014476776,0.11005859076976776,10.056005477905273,-0.03941480070352554,0.0026631623040884733,-0.014381076209247112,39.58882522583008,,,,,,,,,,,,,,,,2779096485
-0.0835547721862793,0.01172352066040039,9.830461594390869,-0.0024703348943753054,0.007305004214566498,-0.001257577947606659,30.100000381469727,24355,,,,-0.08134765923023224,0.155517578125,10.058398246765137,-0.03728426992893219,0.0013315811520442367,-0.007989486679434776,39.68294143676758,,,,,,,,,,,,,,,,2779096485
-0.08308171463012695,0.011344409179687499,9.825063751220704,-0.0014485066227450563,0.008312371521576996,-0.0018021144919529723,30.100000381469727,24356,,,,-0.04306640475988388,0.08852539211511612,10.113428115844727,-0.03728426992893219,0.0026631623040884733,-0.010918965563178062,39.58882522583008,,,,,,,,,,,,,,,,2779096485
-0.0828981216430664,0.005381842803955078,9.822858168029784,-0.002668693788903961,0.008037639825412446,-0.0023402993971430967,30.100000381469727,24357,15.0,-20.700000762939453,-70.80000305175781,-0.06938476860523224,0.11962890625,10.075146675109863,-0.03595269098877907,0.002929478418081999,-0.009587383829057217,39.49470520019531,2024,5,21,15,23,19,0,16.588321685791016,49.223960876464844,315435,273066,170997,15027,0,283,2779096485
-0.08093224487304687,0.008022949981689453,9.831485842132569,-0.0009237174177459717,0.007692054728933258,-0.000986687861288147,30.100000381469727,24358,,,,-0.09331054985523224,0.131591796875,10.091894149780273,-0.038882169872522354,0.0050600082613527775,-0.012783179059624672,39.49470520019531,,,,,,,,,,,,,,,,2779096485
-0.08195077285766601,0.0035882316589355466,9.829084553527832,-0.0011870707582313537,0.008570997751159973,-0.003071836454046936,30.100000381469727,24359,,,,-0.10048828274011612,0.09331054985523224,10.036865234375,-0.03621900454163551,0.004261059686541557,-0.008255803026258945,39.49470520019531,,,,,,,,,,,,,,,,2779096485
-0.07887754364013672,0.008654889678955079,9.831692426300048,-0.0016190621156843567,0.006964971808921966,-0.0020684838623521423,30.100000381469727,24360,,,,-0.07656250149011612,0.12680664658546448,10.067968368530273,-0.03834953531622887,0.003994743339717388,-0.011984230019152164,39.49470520019531,,,,,,,,,,,,,,,,2779096485
-0.08271793060302735,0.006016324615478515,9.832072472381592,-0.0013595237534342957,0.007600455303869476,-0.0011659785225428773,30.100000381469727,24361,15.300000190734863,-20.549999237060547,-70.94999694824219,-0.131591796875,0.095703125,10.067968368530273,-0.036751639097929,0.003195794764906168,-0.010120016522705555,39.49470520019531,,,,,,,,,,,,,,,,2779096485
-0.08667671279907227,0.0073911598205566404,9.826014389801026,-0.0010391854239155578,0.008064943884300842,-0.0011632354666389465,30.30000114440918,24362,,,,-0.08852539211511612,0.11962890625,10.070361137390137,-0.03542005643248558,0.0055926404893398285,-0.010386332869529724,39.49470520019531,,,,,,,,,,,,,,,,2779096485
-0.08060756454467773,0.005110883331298828,9.81932586288452,0.0004583033888421631,0.008353623886578827,-0.002164304397714691,30.30000114440918,24363,,,,-0.04545898362994194,0.12202148139476776,10.056005477905273,-0.03781690448522568,0.0034621108788996935,-0.010120016522705555,39.49470520019531,,,,,,,,,,,,,,,,2779096485
-0.07806245956420899,0.00444600830078125,9.823683121490479,-0.0011964117956906129,0.007623345173281402,-0.00351446048207901,30.30000114440918,24364,,,,-0.06699218600988388,0.06699218600988388,10.065576553344727,-0.037550587207078934,0.0026631623040884733,-0.010120016522705555,39.58882522583008,,,,,,,,,,,,,,,,2779096485
-0.08373582305908203,0.003850704956054687,9.825365290832519,0.0005167864059783936,0.007938230680505677,-0.002618599729143829,30.200000762939453,24365,16.5,-19.649999618530273,-70.94999694824219,-0.11484374850988388,0.09091796725988388,10.039258003234863,-0.03462110832333565,0.004261059686541557,-0.015712657943367958,39.49470520019531,,,,,,,,,,,,,,,,2779096485
-0.07862224807739257,-0.00043541183471679684,9.82685302581787,-0.0015351525682153321,0.00821579864321167,-0.0026165557530212404,30.0,24366,,,,-0.11962890625,0.11484374850988388,10.010546684265137,-0.03728426992893219,0.004527375567704439,-0.009587383829057217,39.58882522583008,,,,,,,,,,,,,,,,2779096485
-0.08067134170532227,0.0015570823669433594,9.825384655761718,-0.001884865564355774,0.008232143794289704,-0.0006229799537155152,30.0,24367,,,,-0.12919922173023224,0.11962890625,10.065576553344727,-0.03621900454163551,0.002929478418081999,-0.013582127168774605,39.49470520019531,,,,,,,,,,,,,,,,2779096485
-0.08036946563720702,0.0012804405212402342,9.825768477630614,0.0005621000916146851,0.00687211404025177,-0.002709686495701294,30.0,24368,,,,-0.08852539211511612,0.06938476860523224,10.130175590515137,-0.037017956376075745,0.006125273182988167,-0.011717913672327995,39.49470520019531,,,,,,,,,,,,,,,,2779096485
-0.0782647819519043,0.0026208824157714842,9.831862336730957,-0.0015353056999769593,0.008134472361982269,-0.0016200608010862733,30.0,24369,15.300000190734863,-20.25,-70.94999694824219,-0.12441406399011612,0.09091796725988388,10.151708602905273,-0.03861585259437561,0.005858956836163998,-0.01491370890289545,39.58882522583008,,,,,,,,,,,,,,,,2779096485
-0.08073586654663086,0.002664360046386719,9.822628256225586,-0.0011865514418223572,0.00805348563378952,-0.0006247842453416443,30.0,24370,,,,-0.03110351599752903,0.07177734375,10.108642578125,-0.037017956376075745,0.003994743339717388,-0.009321067482233047,39.49470520019531,,,,,,,,,,,,,,,,2779096485
-0.08198830642700194,0.0005378067016601562,9.83025467376709,-0.0023164641055506896,0.006955957008694,-0.0030622357583831787,30.0,24371,,,,-0.095703125,0.10048828274011612,10.122998237609863,-0.03488742560148239,0.0037284272257238626,-0.012250546365976334,39.49470520019531,,,,,,,,,,,,,,,,2779096485
-0.08195884780883789,0.0007528770446777344,9.829750811767578,-0.0014423414048638915,0.00615816716222702,-0.002066266780759888,30.0,24372,,,,-0.0478515625,0.06220703199505806,10.099072456359863,-0.03861585259437561,0.004527375567704439,-0.013848443515598774,39.58882522583008,,,,,,,,,,,,,,,,2779096485
-0.0819925682067871,-0.000221612548828125,9.829715259552001,-0.0001403752200933838,0.008318949529424286,-0.0011727362937625123,30.0,24373,14.699999809265137,-19.649999618530273,-70.5,-0.05502929538488388,0.1435546875,10.060791015625,-0.0391484834253788,0.006924221757799387,-0.009853700175881386,39.49470520019531,,,,,,,,,,,,,,,,2779096485
-0.08387156448364258,-0.0012174110412597656,9.829096366882323,-0.0007734152647575379,0.0077198980779386904,-0.003163136273490143,30.100000381469727,24374,,,,-0.11005859076976776,0.10048828274011612,10.060791015625,-0.03861585259437561,0.005326324608176947,-0.008788435719907284,39.49470520019531,,,,,,,,,,,,,,,,2779096485
-0.08316881942749023,0.002871168518066406,9.826560271453857,-0.0012819392135107422,0.007746423162213593,-0.0030695261618171694,30.200000762939453,24375,,,,-0.05742187425494194,0.12202148139476776,10.099072456359863,-0.03834953531622887,0.008255803026258945,-0.009587383829057217,39.49470520019531,,,,,,,,,,,,,,,,2779096485
-0.0781022361755371,0.001383769989013672,9.828984962463378,-0.0005364005872720337,0.007674085049601441,-0.003437781416919861,30.200000762939453,24376,,,,-0.107666015625,0.10527344048023224,10.0966796875,-0.03595269098877907,0.006391589529812336,-0.010918965563178062,39.49470520019531,,,,,,,,,,,,,,,,2779096485
-0.07986332321166992,0.0009755737304687499,9.825748327636719,-0.0016695290179945374,0.007233764655896454,-0.00234552585074646,30.200000762939453,24377,15.149999618530273,-20.25,-69.9000015258789,-0.07416991889476776,0.11484374850988388,10.130175590515137,-0.036751639097929,0.003195794764906168,-0.01491370890289545,39.58882522583008,,,,,,,,,,,,,,,,2779096485
-0.08114604415893555,0.001973615264892578,9.828603645324707,-0.0003346927676956177,0.006737810827402039,-0.0027083948625814818,30.30000114440918,24378,,,,-0.06938476860523224,0.12919922173023224,10.046435356140137,-0.037550587207078934,0.0037284272257238626,-0.009321067482233047,39.49470520019531,,,,,,,,,,,,,,,,2779096485
-0.08791375045776367,0.0010898941040039063,9.826713882446288,-0.0018184529851283265,0.006839683396300202,-0.001073440333201294,30.30000114440918,24379,,,,-0.15073242783546448,0.107666015625,10.142138481140137,-0.03834953531622887,0.006125273182988167,-0.012516862712800503,39.49470520019531,,,,,,,,,,,,,,,,2779096485
-0.08454339294433594,0.0034380226135253904,9.831027850341796,-0.0011200256782493592,0.006658761548889008,-0.0013469203436621093,30.30000114440918,24380,,,,-0.10527344048023224,0.09091796725988388,10.132568359375,-0.03781690448522568,0.004261059686541557,-0.011984230019152164,39.49470520019531,,,,,,,,,,,,,,,,2779096485
-0.08521660461425781,0.005497471618652343,9.827131275177,-0.0011637481251452638,0.006219266735116272,-0.0015304587468263245,30.200000762939453,24381,15.149999618530273,-20.100000381469727,-71.0999984741211,-0.09809570014476776,0.08613280951976776,10.115819931030273,-0.03542005643248558,0.007723170332610607,-0.010386332869529724,39.58882522583008,,,,,,,,,,,,,,,,2779096485
-0.08368124237060547,0.01096230697631836,9.830792929077148,-0.0018028402033450318,0.005715196923255616,-0.0018008960957626343,30.0,24382,,,,-0.09809570014476776,0.11962890625,10.16845703125,-0.037550587207078934,0.007989486679434776,-0.016777921468019485,39.58882522583008,,,,,,,,,,,,,,,,2779096485
-0.08726872634887695,0.009693679809570312,9.823158212280273,-0.0005857223303213501,0.006813584417796783,0.0007268032880987549,30.0,24383,,,,-0.08613280951976776,0.11245117336511612,10.154101371765137,-0.03648532181978226,0.0018642136128619313,-0.009853700175881386,39.49470520019531,,,,,,,,,,,,,,,,2779096485
-0.08738308410644531,0.008434062194824218,9.82584847946167,-0.000646042928597107,0.006732318057691498,-0.0035269307337976075,30.100000381469727,24384,,,,-0.06938476860523224,0.11484374850988388,10.044042587280273,-0.036751639097929,0.005858956836163998,-0.007456854451447725,39.49470520019531,,,,,,,,,,,,,,,,2779096485
-0.08374139328002929,0.007142855072021484,9.833491046905518,-0.00044817671886672976,0.007146799131097565,-0.0021683390867384337,30.200000762939453,24385,15.300000190734863,-20.850000381469727,-71.69999694824219,-0.07895507663488388,0.16269531846046448,10.0966796875,-0.03595269098877907,0.006657905410975218,-0.011717913672327995,39.58882522583008,,,,,,,,,,,,,,,,2779096485
-0.0860969612121582,0.009696969604492187,9.828572579193114,-0.0009412210438902283,0.007017995345861053,-0.0023445537969552614,30.200000762939453,24386,,,,-0.09809570014476776,0.131591796875,10.118212699890137,-0.03728426992893219,0.0037284272257238626,-0.010918965563178062,39.49470520019531,,,,,,,,,,,,,,,,2779096485
-0.08735037307739257,0.009013552093505859,9.832961502075195,-0.0012641026922325135,0.008498000506182556,-0.003160959139313965,30.200000762939453,24387,,,,-0.09331054985523224,0.13637694716453552,10.048828125,-0.03595269098877907,0.0055926404893398285,-0.013049494475126266,39.58882522583008,,,,,,,,,,,,,,,,2779096485
-0.0921489501953125,0.011842102813720702,9.830622607421875,-0.001993768878483429,0.0071951355045503235,-0.0014363293187443543,30.0,24388,,,,-0.07416991889476776,0.08134765923023224,10.127782821655273,-0.03621900454163551,0.002929478418081999,-0.009853700175881386,39.49470520019531,,,,,,,,,,,,,,,,2779096485
-0.08943434600830077,0.014312925720214843,9.82727318496704,-0.0003336208453642273,0.006208927012255097,-0.0016197678533683777,30.0,24389,15.149999618530273,-19.799999237060547,-70.94999694824219,-0.12441406399011612,0.13876953721046448,10.101465225219727,-0.03621900454163551,0.004261059686541557,-0.010652649216353893,39.58882522583008,,,,,,,,,,,,,,,,2779096485
-0.08947105712890625,0.013465392303466796,9.825870386505127,-0.0005066464201976014,0.0074728099936991884,-0.0016231434100268554,30.100000381469727,24390,,,,-0.07656250149011612,0.09809570014476776,10.115819931030273,-0.036751639097929,0.0037284272257238626,-0.010918965563178062,39.58882522583008,,,,,,,,,,,,,,,,2779096485
-0.08907022552490235,0.011591629791259765,9.829293305969237,-0.0019428425808883667,0.006747777707713165,-0.001068094037349701,30.200000762939453,24391,,,,-0.11962890625,0.07895507663488388,10.142138481140137,-0.037550587207078934,0.006125273182988167,-0.012250546365976334,39.49470520019531,,,,,,,,,,,,,,,,2779096485
-0.08947004776000976,0.012612625122070313,9.825497331237793,-0.0019458719266075134,0.007823734728127288,-0.0010718624102662659,30.200000762939453,24392,,,,-0.083740234375,0.16748046875,10.108642578125,-0.035686373710632324,0.0034621108788996935,-0.009321067482233047,39.58882522583008,,,,,,,,,,,,,,,,2779096485
-0.09122238693237304,0.014304589080810547,9.822689304351806,-0.0016817662431193542,0.007098342915396576,-0.0020664465441322328,30.200000762939453,24393,15.0,-20.25,-70.80000305175781,-0.155517578125,0.11723633110523224,10.039258003234863,-0.03781690448522568,0.004261059686541557,-0.012250546365976334,39.49470520019531,,,,,,,,,,,,,,,,2779096485
-0.09047635116577148,0.013731454467773437,9.82054465713501,-0.0021206418719429015,0.007999097226801147,-0.0015246930031059265,30.200000762939453,24394,,,,-0.02871093712747097,0.10288085788488388,9.998583793640137,-0.03648532181978226,0.0050600082613527775,-0.007989486679434776,39.49470520019531,,,,,,,,,,,,,,,,2779096485
-0.09148800048828125,0.007665969848632812,9.822441822052001,-0.0018608105619749452,0.008544153087556457,-0.0007124288762138367,30.200000762939453,24395,,,,-0.12680664658546448,0.14833983778953552,10.108642578125,-0.03728426992893219,0.0021305298432707787,-0.010120016522705555,39.58882522583008,,,,,,,,,,,,,,,,2779096485
-0.08618664550781249,0.00854187774658203,9.827508143615722,-0.002177999703526306,0.006248781217694245,-0.001606618495576477,30.200000762939453,24396,,,,-0.11962890625,0.11484374850988388,9.993799209594727,-0.03728426992893219,0.0013315811520442367,-0.009587383829057217,39.58882522583008,,,,,,,,,,,,,,,,2779096485
-0.08411841125488281,0.009403093719482421,9.831246958160401,-0.0028613335450309754,0.00825789656185379,-0.00142836646713974,30.30000114440918,24397,15.0,-20.25,-70.5,-0.08613280951976776,0.11723633110523224,10.046435356140137,-0.03808322176337242,0.0050600082613527775,-0.011185280978679657,39.49470520019531,,,,,,,,,,,,,,,,2779096485
-0.08553545303344726,0.007151079559326172,9.8238967338562,-0.00023634222931488038,0.007020898191429291,-0.0006176136841558838,30.30000114440918,24398,,,,-0.07656250149011612,0.11245117336511612,10.125391006469727,-0.03808322176337242,0.0055926404893398285,-0.008522119373083115,39.49470520019531,,,,,,,,,,,,,,,,2779096485
-0.09145338287353515,0.008933587646484374,9.833687051391601,0.00021156817344467163,0.00741203000013855,-0.0024386699092318726,30.30000114440918,24399,,,,-0.07895507663488388,0.10048828274011612,10.075146675109863,-0.0391484834253788,0.0026631623040884733,-0.009054751135408878,39.49470520019531,,,,,,,,,,,,,,,,2779096485
-0.08278982009887695,0.003947193145751953,9.831800241851806,-0.0020826452213513185,0.006272050587558899,-0.0035162115104837035,30.200000762939453,24400,15.149999618530273,-20.549999237060547,-70.3499984741211,-0.06938476860523224,0.09091796725988388,10.029687881469727,-0.03808322176337242,0.0021305298432707787,-0.010918965563178062,39.49470520019531,,,,,,,,,,,,,,,,2779096485
-0.08058954544067383,0.006232778167724609,9.829977545928955,-0.0012591026073202514,0.0072017068544949344,-0.0009000752053312683,30.0,24401,,,,-0.11005859076976776,0.13637694716453552,10.111035346984863,-0.035153742879629135,0.0055926404893398285,-0.009054751135408878,39.58882522583008,,,,,,,,,,,,,,,,2779096485
-0.08186217269897461,0.005317355346679688,9.83954266204834,-0.0013467139486790466,0.007547385161611633,-0.0024405740693981934,30.0,24402,,,,-0.083740234375,0.10288085788488388,10.115819931030273,-0.03808322176337242,0.004793691914528608,-0.010120016522705555,39.49470520019531,,,,,,,,,,,,,,,,2779096485
-0.07990519332885741,0.002294220733642578,9.831826410675049,-0.00013538179308380128,0.007445179697579498,-0.001992523850682373,30.0,24403,,,,-0.06938476860523224,0.12919922173023224,10.16845703125,-0.036751639097929,0.002929478418081999,-0.009587383829057217,39.58882522583008,,,,,,,,,,,,,,,,2779096485
-0.07757007446289062,-0.0031997367858886717,9.832741833496094,-0.0007602792227709961,0.0069844062268432615,-0.0002693920582156372,29.899999618530273,24404,14.850000381469727,-19.649999618530273,-70.6500015258789,-0.083740234375,0.16748046875,10.111035346984863,-0.03621900454163551,0.003195794764906168,-0.010386332869529724,39.58882522583008,,,,,,,,,,,,,,,,2779096485
-0.07580584716796875,0.0036306251525878904,9.829302352905273,-0.0014560500264808654,0.006603840509686279,-0.002801425736721344,29.899999618530273,24405,,,,-0.083740234375,0.07656250149011612,10.067968368530273,-0.03648532181978226,0.009321067482233047,-0.010652649216353893,39.49470520019531,,,,,,,,,,,,,,,,2779096485
-0.07590401763916016,0.0010738937377929687,9.828625888824462,-0.00099191431489151,0.007285376717467499,-0.0027121299459846497,30.0,24406,,,,-0.11962890625,0.08134765923023224,10.087109565734863,-0.036751639097929,0.006657905410975218,-0.010918965563178062,39.58882522583008,,,,,,,,,,,,,,,,2779096485
-0.07832313842773438,0.0010824920654296875,9.836322700500489,-0.0030653117094210816,0.007573630613973999,-0.004424848778660736,30.0,24407,,,,-0.13637694716453552,0.14116211235523224,10.0966796875,-0.037017956376075745,0.004527375567704439,-0.008522119373083115,39.58882522583008,,,,,,,,,,,,,,,,2779096485
-0.07577885589599609,-0.00010157241821289062,9.841033387756347,-0.001064325664433136,0.009034461014578705,-0.0015388809937158204,30.0,24408,15.600000381469727,-20.100000381469727,-70.80000305175781,-0.083740234375,0.12202148139476776,10.115819931030273,-0.04048006609082222,0.004793691914528608,-0.012250546365976334,39.49470520019531,,,,,,,,,,,,,,,,2779096485
-0.07612518157958983,0.0005304046630859374,9.835362977600097,-0.0021955898824053957,0.008218042356414643,-0.0025282852792971803,30.0,24409,,,,-0.06459961086511612,0.05742187425494194,10.103857040405273,-0.03648532181978226,0.0034621108788996935,-0.009587383829057217,39.49470520019531,,,,,,,,,,,,,,,,2779096485
-0.07373409881591797,-0.006149748229980469,9.835643283081055,-0.0011495801082434082,0.008571650225622559,-0.0032576784915382385,30.0,24410,,,,-0.08613280951976776,0.06459961086511612,10.103857040405273,-0.03808322176337242,0.008788435719907284,-0.008788435719907284,39.58882522583008,,,,,,,,,,,,,,,,2779096485
-0.07950925903320312,-0.0020172050476074217,9.835136729431152,-0.0016263325454103088,0.007763940104163208,-0.0019811588108085633,30.0,24411,,,,-0.083740234375,0.11245117336511612,10.115819931030273,-0.03648532181978226,0.004793691914528608,-0.009853700175881386,39.49470520019531,,,,,,,,,,,,,,,,2779096485
-0.07488373260498046,-0.001551250457763672,9.836427600097656,-0.0021182982901997377,0.007190614788630981,-0.0017029916368614198,30.0,24412,14.699999809265137,-20.25,-70.5,-0.10288085788488388,0.07416991889476776,10.089502334594727,-0.03621900454163551,0.006125273182988167,-0.008788435719907284,39.49470520019531,,,,,,,,,,,,,,,,2779096485
-0.07786724014282226,-0.0008335517883300781,9.826574963378906,-0.000897938018571167,0.007292833568468476,-0.00034912044280197143,30.0,24413,,,,-0.059814453125,0.08852539211511612,10.017724990844727,-0.03728426992893219,0.004261059686541557,-0.011185280978679657,39.49470520019531,,,,,,,,,,,,,,,,2779096485
-0.08231160354614257,-0.004540290832519531,9.82804942703247,-0.0002903844253639221,0.00836938314222107,-0.0003550126866732788,30.0,24414,,,,-0.11484374850988388,0.107666015625,10.146924018859863,-0.03408847749233246,0.006391589529812336,-0.011717913672327995,39.49470520019531,,,,,,,,,,,,,,,,2779096485
-0.07519173965454101,-0.0007990463256835937,9.823121725463867,-0.0011559850106210327,0.006373204102967682,-0.0030619361527626037,30.0,24415,,,,-0.11245117336511612,0.14594726264476776,10.130175590515137,-0.036751639097929,0.004261059686541557,-0.009853700175881386,39.68294143676758,,,,,,,,,,,,,,,,2779096485
-0.0808188217163086,0.0034257980346679684,9.822323389434814,-0.0011336810366448975,0.007146759183681488,-0.0016134228721148682,30.100000381469727,24416,15.300000190734863,-20.100000381469727,-71.0999984741211,-0.07177734375,0.08613280951976776,10.113428115844727,-0.03488742560148239,0.008522119373083115,-0.012250546365976334,39.58882522583008,,,,,,,,,,,,,,,,2779096485
-0.0837127197265625,-0.0005738822937011718,9.827113667297363,-0.0011109909043133545,0.00816746892766159,-0.0027921512782888794,30.200000762939453,24417,,,,-0.11245117336511612,0.14116211235523224,10.07275390625,-0.03861585259437561,0.006924221757799387,-0.008255803026258945,39.49470520019531,,,,,,,,,,,,,,,,2779096485
-0.08515918273925781,0.006886587524414062,9.829034421539307,-0.0004131295191621399,0.007997918778026886,-0.0017072060892575074,30.200000762939453,24418,,,,-0.11245117336511612,0.107666015625,10.034472465515137,-0.03808322176337242,0.005326324608176947,-0.013049494475126266,39.49470520019531,,,,,,,,,,,,,,,,2779096485
-0.08360897903442382,0.008212001037597656,9.831685360717772,-0.0005111937677276611,0.00833409625802002,-0.0022523351869422913,30.200000762939453,24419,,,,-0.08852539211511612,0.08852539211511612,10.156494140625,-0.03595269098877907,0.006657905410975218,-0.014647392556071281,39.49470520019531,,,,,,,,,,,,,,,,2779096485
-0.08870774993896484,0.005328383636474609,9.825712326812743,-0.0003556118979144287,0.009399380660438996,-0.0003561178985180664,30.100000381469727,24420,16.049999237060547,-20.25,-71.0999984741211,-0.059814453125,0.06938476860523224,10.060791015625,-0.03488742560148239,0.002929478418081999,-0.012516862712800503,39.49470520019531,,,,,,,,,,,,,,,,2779096485
-0.0928836212158203,0.011530731201171875,9.82448284072876,-0.0004379901277671814,0.007863648854690552,-0.0017089038544407654,30.100000381469727,24421,,,,-0.06220703199505806,0.08852539211511612,10.079931259155273,-0.03728426992893219,0.004527375567704439,-0.009054751135408878,39.40058898925781,,,,,,,,,,,,,,,,2779096485
-0.09065441131591796,0.01079351806640625,9.824116178131103,-0.000959237328540802,0.007313033645197906,-0.003154188052288971,30.100000381469727,24422,,,,-0.131591796875,0.14833983778953552,10.065576553344727,-0.037550587207078934,0.006657905410975218,-0.011717913672327995,39.49470520019531,,,,,,,,,,,,,,,,2779096485
-0.09297809066772461,0.01086181869506836,9.824333005523682,-0.0018410232752116395,0.007033261916705017,-0.0022454176260583497,30.100000381469727,24423,,,,-0.12441406399011612,0.131591796875,10.127782821655273,-0.038882169872522354,0.007989486679434776,-0.008255803026258945,39.58882522583008,,,,,,,,,,,,,,,,2779096485
-0.09069747772216796,0.008420491790771483,9.82357343673706,-0.0003721434702674866,0.006820761636885223,-0.0032473587423851014,30.100000381469727,24424,15.600000381469727,-20.100000381469727,-70.19999694824219,-0.11484374850988388,0.11484374850988388,10.094286918640137,-0.037550587207078934,0.0037284272257238626,-0.011451597325503826,39.49470520019531,,,,,,,,,,,,,,,,2779096485
-0.08914065704345703,0.014603287506103515,9.822419690704345,-0.0009010006538037109,0.006907227818983154,-0.002521767192574005,30.100000381469727,24425,,,,-0.12680664658546448,0.17465820908546448,10.125391006469727,-0.03408847749233246,0.0050600082613527775,-0.012516862712800503,39.49470520019531,,,,,,,,,,,,,,,,2779096485
-0.0900973892211914,0.013368567657470702,9.82770852203369,-5.117263999420166e-05,0.00751812367933548,-0.0004457132948753357,30.0,24426,,,,-0.07177734375,0.12919922173023224,10.079931259155273,-0.036751639097929,0.004793691914528608,-0.009054751135408878,39.58882522583008,,,,,,,,,,,,,,,,2779096485
-0.0920640510559082,0.010781106567382813,9.829005187225341,-0.0019690147963212588,0.007324045816229706,-0.0019779630175224302,30.0,24427,,,,-0.06938476860523224,0.15312500298023224,10.099072456359863,-0.036751639097929,0.0050600082613527775,-0.011185280978679657,39.58882522583008,,,,,,,,,,,,,,,,2779096485
-0.09078962936401366,0.01572488327026367,9.8254663772583,-0.00039901476548171995,0.007411444104702759,-0.00243655269617981,30.0,24428,14.850000381469727,-20.850000381469727,-70.05000305175781,-0.09091796725988388,0.08852539211511612,10.048828125,-0.03462110832333565,0.0018642136128619313,-0.007723170332610607,39.58882522583008,,,,,,,,,,,,,,,,2779096485
-0.08848703460693359,0.014302794647216796,9.828590074920655,-9.34037166899109e-05,0.007504162057416687,-0.0008036488008248901,30.200000762939453,24429,,,,-0.06459961086511612,0.09809570014476776,10.041650772094727,-0.03941480070352554,0.0050600082613527775,-0.011984230019152164,39.58882522583008,,,,,,,,,,,,,,,,2779096485
-0.09003219146728515,0.015540841674804688,9.824767295837402,-0.0025318938625494385,0.007871478548241577,-0.000524316493908844,30.200000762939453,24430,,,,-0.11962890625,0.10288085788488388,10.103857040405273,-0.03595269098877907,0.005858956836163998,-0.008255803026258945,39.58882522583008,,,,,,,,,,,,,,,,2779096485
-0.08736599960327149,0.016343850708007812,9.827498947143555,-0.0009603025929695129,0.007419373666793976,-0.0011621435705995178,30.200000762939453,24431,,,,-0.09331054985523224,0.16987304389476776,10.046435356140137,-0.03861585259437561,0.004527375567704439,-0.012783179059624672,39.49470520019531,,,,,,,,,,,,,,,,2779096485
-0.08765598754882813,0.014134902954101561,9.823891088867187,-0.0014854113772972107,0.008299575032627106,-0.003065258446199646,30.200000762939453,24432,15.300000190734863,-20.549999237060547,-70.3499984741211,-0.11962890625,0.08613280951976776,9.993799209594727,-0.03728426992893219,0.0037284272257238626,-0.012783179059624672,39.58882522583008,,,,,,,,,,,,,,,,2779096485
-0.08467154541015624,0.014701158905029297,9.832533305358886,-0.0012200007448838807,0.006702577206422425,-0.001068153958473816,30.200000762939453,24433,,,,-0.095703125,0.11005859076976776,10.051220893859863,-0.03728426992893219,0.0026631623040884733,-0.010918965563178062,39.49470520019531,,,,,,,,,,,,,,,,2779096485
-0.08724222106933593,0.01768582534790039,9.826942224121094,-0.0015712650323486327,0.007764545973307038,-0.0027008248272349547,30.200000762939453,24434,,,,-0.12441406399011612,0.095703125,10.020116806030273,-0.03542005643248558,0.006125273182988167,-0.011717913672327995,39.68294143676758,,,,,,,,,,,,,,,,2779096485
-0.09065657958984374,0.016234689331054687,9.827090676116944,-0.0014816696359913634,0.006786679833069153,-0.001701493608758545,30.200000762939453,24435,,,,-0.04067382961511612,0.14116211235523224,10.142138481140137,-0.03808322176337242,0.004261059686541557,-0.011717913672327995,39.49470520019531,,,,,,,,,,,,,,,,2779096485
-0.09021081237792969,0.009022711181640625,9.825156912231446,-0.0011849535451792907,0.00768270037566864,-0.0020725185513758852,30.200000762939453,24436,15.0,-20.549999237060547,-71.55000305175781,-0.13398437201976776,0.083740234375,10.115819931030273,-0.037550587207078934,0.005858956836163998,-0.009054751135408878,39.49470520019531,,,,,,,,,,,,,,,,2779096485
-0.08587022705078125,0.009993051147460937,9.822447953033446,-0.00249611429355011,0.008752086046138153,-0.00270566512248291,30.200000762939453,24437,,,,-0.03110351599752903,0.17465820908546448,10.082324028015137,-0.03834953531622887,0.004261059686541557,-0.013582127168774605,39.58882522583008,,,,,,,,,,,,,,,,2779096485
-0.0834495735168457,0.012787171173095703,9.822735025024414,-0.0015677563176365661,0.007351303269799347,-0.002163791739208374,30.100000381469727,24438,,,,-0.11484374850988388,0.10527344048023224,10.046435356140137,-0.03648532181978226,0.007723170332610607,-0.010918965563178062,39.49470520019531,,,,,,,,,,,,,,,,2779096485
-0.07943389282226562,0.010932399749755859,9.826401763153076,-0.0017556489891531373,0.006619686318063355,-0.0007129215610121155,30.0,24439,15.600000381469727,-20.399999618530273,-69.75,-0.13637694716453552,0.07895507663488388,10.041650772094727,-0.03595269098877907,0.006125273182988167,-0.009054751135408878,39.49470520019531,,,,,,,,,,,,,,,,2779096485
-0.08186916351318359,0.011816606903076171,9.828344611358641,0.000770685524658966,0.007955720990844574,-0.0020848556450408936,30.0,24440,,,,-0.07656250149011612,0.11484374850988388,10.012939453125,-0.03808322176337242,0.002396845957264304,-0.008255803026258945,39.49470520019531,,,,,,,,,,,,,,,,2779096485
-0.0772839370727539,0.003940015411376953,9.836808954620361,-0.001392793293123474,0.007256501393546753,-0.0027980235484521485,30.100000381469727,24441,,,,-0.05502929538488388,0.16030272841453552,10.058398246765137,-0.03781690448522568,0.004261059686541557,-0.010652649216353893,39.49470520019531,,,,,,,,,,,,,,,,2779096485
-0.08124006500244141,0.003652906036376953,9.835655918884276,-0.001645287594338684,0.007457643291395416,-0.00225354692522995,30.100000381469727,24442,,,,-0.09091796725988388,0.1435546875,10.063183784484863,-0.03408847749233246,0.004527375567704439,-0.007723170332610607,39.58882522583008,,,,,,,,,,,,,,,,2779096485
-0.08245321426391601,0.0072148193359375,9.829262651062011,-0.0004229698993223572,0.007012782208063049,-0.001984534367467041,30.100000381469727,24443,15.300000190734863,-20.25,-70.5,-0.107666015625,0.12202148139476776,10.07275390625,-0.036751639097929,0.003994743339717388,-0.009853700175881386,39.49470520019531,,,,,,,,,,,,,,,,2779096485
-0.07931231994628905,-0.0021230018615722656,9.830800106811523,-0.0017198960517645263,0.006490289979488373,-0.002067844703694916,30.200000762939453,24444,,,,-0.06459961086511612,0.17705078423023224,10.127782821655273,-0.037550587207078934,0.005326324608176947,-0.010386332869529724,39.49470520019531,,,,,,,,,,,,,,,,2779096485
-0.07565268478393554,0.0012825340270996093,9.829024925994872,-0.0005774665309988404,0.008845123578180694,-0.002531527677902069,30.200000762939453,24445,,,,-0.05024414137005806,0.10048828274011612,10.089502334594727,-0.03861585259437561,0.006924221757799387,-0.009853700175881386,39.49470520019531,,,,,,,,,,,,,,,,2779096485
-0.07600368347167968,-0.003220447540283203,9.82795862121582,-0.002059269325043793,0.008399922941811676,-0.0019814317848184204,30.200000762939453,24446,,,,-0.095703125,0.12202148139476776,10.044042587280273,-0.03728426992893219,0.004527375567704439,-0.011185280978679657,39.49470520019531,,,,,,,,,,,,,,,,2779096485
-0.07901978988647461,0.003145754241943359,9.830616962432861,-0.001435530370422821,0.00733751475335022,-0.0025223397722044373,30.30000114440918,24447,14.699999809265137,-20.850000381469727,-70.6500015258789,-0.06459961086511612,0.07177734375,10.065576553344727,-0.03834953531622887,0.0037284272257238626,-0.013582127168774605,39.49470520019531,,,,,,,,,,,,,,,,2779096485
-0.07865705261230468,-0.0013470962524414062,9.833692322540283,-0.0018972159738261413,0.008529152832819673,-0.0023378626047624207,30.399999618530273,24448,,,,-0.10048828274011612,0.16269531846046448,10.077539443969727,-0.037017956376075745,0.0050600082613527775,-0.010386332869529724,39.49470520019531,,,,,,,,,,,,,,,,2779096485
-0.07830713806152344,-0.002556507110595703,9.831010018157958,-0.0020677182035440064,0.007349718688961639,-0.003963289675408325,30.399999618530273,24449,,,,-0.11245117336511612,0.14833983778953552,10.187597274780273,-0.03781690448522568,0.005326324608176947,-0.010386332869529724,39.58882522583008,,,,,,,,,,,,,,,,2779096485
-0.08015790939331055,-0.004251162719726562,9.82978748550415,-0.0014627212449656677,0.0073527613504861455,-0.002607387821031647,30.399999618530273,24450,,,,-0.10048828274011612,0.12202148139476776,10.075146675109863,-0.03595269098877907,0.004793691914528608,-0.012783179059624672,39.49470520019531,,,,,,,,,,,,,,,,2779096485
-0.07615527572631836,-0.002556731414794922,9.837951485443115,-0.0016392621924137879,0.007360058411822815,-0.004245178616953278,30.100000381469727,24451,14.699999809265137,-20.399999618530273,-69.9000015258789,-0.059814453125,0.11245117336511612,10.020116806030273,-0.035153742879629135,0.0050600082613527775,-0.010386332869529724,39.49470520019531,,,,,,,,,,,,,,,,2779096485
-0.07961718673706054,-0.004753828430175781,9.834270167541504,-0.0010594054743530274,0.007412928817000275,-0.002438843014701538,29.899999618530273,24452,,,,-0.11484374850988388,0.06938476860523224,10.156494140625,-0.03648532181978226,0.008522119373083115,-0.009587383829057217,39.58882522583008,,,,,,,,,,,,,,,,2779096485
-0.07928544082641602,-0.004509897613525391,9.83391427154541,-0.00071597753834198,0.009384353774091492,-0.002628087240462036,29.899999618530273,24453,,,,-0.095703125,0.14116211235523224,10.089502334594727,-0.03968111798167229,0.0034621108788996935,-0.008255803026258945,39.58882522583008,,,,,,,,,,,,,,,,2779096485
-0.08032800674438477,-0.004241255950927734,9.835864372253418,-0.0003934421009390259,0.008869631317943726,-0.0017162608369015503,30.200000762939453,24454,,,,-0.12441406399011612,0.12680664658546448,10.056005477905273,-0.037017956376075745,0.004793691914528608,-0.010386332869529724,39.49470520019531,,,,,,,,,,,,,,,,2779096485
-0.08248835525512695,-0.004370305633544922,9.839579335784912,-0.0017730460888545228,0.008364156688617706,-0.0008026700891310119,30.200000762939453,24455,15.75,-20.850000381469727,-70.80000305175781,-0.083740234375,0.12202148139476776,10.02490234375,-0.037550587207078934,0.005858956836163998,-0.006924221757799387,39.58882522583008,,,,,,,,,,,,,,,,2779096485
-0.08183850860595702,-0.0059119483947753905,9.835699359130858,-0.00017281252194763184,0.007116265989409638,-0.005329784252947998,30.200000762939453,24456,,,,-0.07416991889476776,0.11245117336511612,10.132568359375,-0.03595269098877907,0.0026631623040884733,-0.009321067482233047,39.49470520019531,,,,,,,,,,,,,,,,2779096485
-0.0822043487548828,-0.000991985321044922,9.840136395263672,-0.002478557404184418,0.0077092254599435426,-0.0018856112494558717,30.100000381469727,24457,,,,-0.08852539211511612,0.07895507663488388,10.053613662719727,-0.03808322176337242,0.004261059686541557,-0.010918965563178062,39.58882522583008,,,,,,,,,,,,,,,,2779096485
-0.07826093139648438,-0.002831055450439453,9.839732834625243,-0.0015348862521081543,0.00778795515912796,-0.00016981646574188233,30.0,24458,,,,-0.07895507663488388,0.107666015625,10.182812690734863,-0.03595269098877907,0.005326324608176947,-0.011717913672327995,39.49470520019531,,,,,,,,,,,,,,,,2779096485
-0.08427000350952148,0.0004693565368652344,9.834271214294434,-0.0012738298880471803,0.00839233959065979,-0.002980336897523346,30.0,24459,15.449999809265137,-20.25,-70.19999694824219,-0.11484374850988388,0.10288085788488388,10.027295112609863,-0.03302321210503578,0.0034621108788996935,-0.009321067482233047,39.49470520019531,,,,,,,,,,,,,,,,2779096485
-0.08045107498168945,0.0004343276977539062,9.840084954833983,-0.002933305472995758,0.008942368904716645,-0.0013463477640316772,30.0,24460,,,,-0.19858399033546448,0.11484374850988388,10.063183784484863,-0.03834953531622887,0.0055926404893398285,-0.011185280978679657,39.58882522583008,,,,,,,,,,,,,,,,2779096485
-0.0824589714050293,0.002136946105957031,9.842715071105957,0.00021532988845855713,0.00615219502352356,-0.0029776537627435305,30.0,24461,,,,-0.09809570014476776,0.11484374850988388,10.058398246765137,-0.03621900454163551,0.004261059686541557,-0.011185280978679657,39.49470520019531,,,,,,,,,,,,,,,,2779096485
-0.08311150970458984,-0.0014778282165527343,9.8406446685791,-0.0009253219722917175,0.008485377122702331,-0.0026196183882537844,30.0,24462,,,,-0.08134765923023224,0.095703125,10.101465225219727,-0.03648532181978226,0.006657905410975218,-0.006657905410975218,39.49470520019531,,,,,,,,,,,,,,,,2779096485
-0.08791573181152343,0.0019063613891601562,9.844031063842774,0.00031572440296188356,0.006804676144011688,-0.0031600403487442017,30.100000381469727,24463,14.699999809265137,-20.25,-69.9000015258789,-0.11962890625,0.11723633110523224,10.154101371765137,-0.036751639097929,0.0050600082613527775,-0.012250546365976334,39.58882522583008,,,,,,,,,,,,,,,,2779096485
-0.08554248123168945,0.008517391204833984,9.841382068634033,-0.0012260061731007386,0.00902244350024231,-0.0024347550624563598,30.200000762939453,24464,,,,-0.083740234375,0.11245117336511612,10.046435356140137,-0.037017956376075745,0.005326324608176947,-0.007190538104623556,39.49470520019531,,,,,,,,,,,,,,,,2779096485
-0.08814209213256835,0.004033998870849609,9.84519441757202,-0.0011372696461891174,0.008484544884867402,-0.002433170481618652,30.200000762939453,24465,,,,-0.09809570014476776,0.11005859076976776,10.056005477905273,-0.03542005643248558,0.005858956836163998,-0.01491370890289545,39.40058898925781,,,,,,,,,,,,,,,,2779096485
-0.08720846328735352,0.004703845977783203,9.844577244567871,-0.0021186711327497863,0.00916741267318451,-0.0022528611612539673,30.30000114440918,24466,,,,-0.02871093712747097,0.15312500298023224,10.12060546875,-0.03648532181978226,0.007190538104623556,-0.013582127168774605,39.58882522583008,,,,,,,,,,,,,,,,2779096485
-0.08661342163085937,0.004901495361328125,9.83969287109375,-0.0012003266424661255,0.008717498241718444,-0.001344736551583252,30.399999618530273,24467,16.200000762939453,-20.850000381469727,-70.6500015258789,-0.11484374850988388,0.15073242783546448,10.101465225219727,-0.03542005643248558,0.0055926404893398285,-0.009054751135408878,39.49470520019531,,,,,,,,,,,,,,,,2779096485
-0.0903831527709961,0.00944062728881836,9.834916500091552,1.9674102417755126e-05,0.009080367253553467,-0.000987992810213318,30.399999618530273,24468,,,,-0.06699218600988388,0.12680664658546448,10.044042587280273,-0.037550587207078934,0.007723170332610607,-0.010386332869529724,39.58882522583008,,,,,,,,,,,,,,,,2779096485
-0.08504482498168946,0.01006834259033203,9.833302257537841,0.000369566861930542,0.008975878128902283,-0.002800134103601532,30.399999618530273,24469,,,,-0.08852539211511612,0.11723633110523224,10.101465225219727,-0.03968111798167229,0.004261059686541557,-0.009853700175881386,39.49470520019531,,,,,,,,,,,,,,,,2779096485
-0.08499106674194336,0.009181144714355468,9.834889097595214,-0.0004859536586698914,0.008867613973431854,-0.0009013135752296448,30.200000762939453,24470,,,,-0.03110351599752903,0.12919922173023224,10.101465225219727,-0.03621900454163551,0.005858956836163998,-0.012516862712800503,39.58882522583008,,,,,,,,,,,,,,,,2779096485
-0.0846733772277832,0.009623360443115235,9.83067939376831,0.0009703759997235108,0.007736749229620361,-0.0013579724621099853,30.0,24471,15.149999618530273,-20.700000762939453,-70.80000305175781,-0.04067382961511612,0.083740234375,10.101465225219727,-0.03648532181978226,0.006125273182988167,-0.012783179059624672,39.58882522583008,,,,,,,,,,,,,,,,2779096485
-0.08049025344848633,0.00815282211303711,9.82926717453003,0.00042908851188476564,0.008871049451214447,-0.0019048326144914245,30.0,24472,,,,-0.10048828274011612,0.095703125,10.070361137390137,-0.03355584293603897,0.004527375567704439,-0.011984230019152164,39.58882522583008,,,,,,,,,,,,,,,,2779096485
-0.08057246093749999,0.0066416473388671874,9.834311888122558,-0.0019377759169493104,0.00948042065185318,-0.00171853783961792,30.0,24473,,,,-0.13637694716453552,0.16748046875,10.017724990844727,-0.03595269098877907,0.004527375567704439,-0.006924221757799387,39.49470520019531,,,,,,,,,,,,,,,,2779096485
-0.09072510452270507,0.01246951904296875,9.832768488311768,7.02808206842041e-05,0.008937555241079406,-0.0025386849232824707,30.0,24474,,,,-0.11723633110523224,0.09091796725988388,10.008153915405273,-0.03355584293603897,0.007190538104623556,-0.010918965563178062,39.49470520019531,,,,,,,,,,,,,,,,2779096485
-0.08740801925659179,0.012063117218017578,9.832549604797363,-0.00010630673208267212,0.009572612630255432,-0.0016346615816622925,30.0,24475,15.899999618530273,-19.950000762939453,-70.80000305175781,-0.13398437201976776,0.155517578125,10.048828125,-0.03648532181978226,0.005858956836163998,-0.011984230019152164,39.58882522583008,,,,,,,,,,,,,,,,2779096485
-0.08685391311645507,0.006947000122070312,9.831592311859131,1.371527951965332e-06,0.007625608860192414,-0.0017173860224543762,30.100000381469727,24476,,,,-0.10048828274011612,0.1435546875,10.118212699890137,-0.035686373710632324,0.007190538104623556,-0.009321067482233047,39.49470520019531,,,,,,,,,,,,,,,,2779096485
-0.08537055206298828,0.006600300598144531,9.833247826385497,-0.0007742142130790711,0.007820931751099243,-0.0018050239954238892,30.100000381469727,24477,,,,-0.15312500298023224,0.11723633110523224,10.005762100219727,-0.03728426992893219,0.0018642136128619313,-0.009321067482233047,39.58882522583008,,,,,,,,,,,,,,,,2779096485
-0.08417403869628906,0.007099452209472656,9.829088067626953,-0.002172367117859497,0.008716213266501313,-0.0018033129144352721,30.100000381469727,24478,,,,-0.11005859076976776,0.11005859076976776,10.046435356140137,-0.03728426992893219,0.006924221757799387,-0.011984230019152164,39.58882522583008,,,,,,,,,,,,,,,,2779096485
-0.08136750717163085,0.004979814910888672,9.83117390975952,-0.0007632153578526306,0.009109322472306365,-0.0009931393689845277,30.200000762939453,24479,15.149999618530273,-20.549999237060547,-70.3499984741211,-0.06938476860523224,0.14116211235523224,10.101465225219727,-0.03595269098877907,0.0050600082613527775,-0.008522119373083115,39.49470520019531,,,,,,,,,,,,,,,,2779096485
-0.0745922492980957,0.005766075897216796,9.834391329193116,-0.0006407565538696289,0.009074981010285798,-0.0017147428350906373,30.30000114440918,24480,,,,-0.08613280951976776,0.10048828274011612,10.118212699890137,-0.03542005643248558,0.006125273182988167,-0.011984230019152164,39.49470520019531,,,,,,,,,,,,,,,,2779096485
-0.07822399597167969,0.0053689453125,9.86197128753662,0.0003205979877232361,0.008361640001404876,-0.001353325246039734,30.30000114440918,24481,,,,-0.10288085788488388,0.095703125,10.067968368530273,-0.03781690448522568,0.006125273182988167,-0.014381076209247112,39.49470520019531,,,,,,,,,,,,,,,,2779096485
-0.07167046279907226,0.0076948303222656245,9.861316319274902,-0.00029688253837905883,0.009068070107304534,-0.0015352457788528442,30.30000114440918,24482,,,,-0.12680664658546448,0.14116211235523224,10.113428115844727,-0.033289529383182526,0.006657905410975218,-0.014647392556071281,39.49470520019531,,,,,,,,,,,,,,,,2779096485
-0.07437501068115235,0.009618836975097656,9.822505673980713,0.000549350207983551,0.011188851795203705,-0.001185213203383789,30.200000762939453,24483,15.449999809265137,-19.649999618530273,-71.4000015258789,-0.10527344048023224,0.09809570014476776,10.008153915405273,-0.037017956376075745,0.006391589529812336,-0.008522119373083115,39.58882522583008,,,,,,,,,,,,,,,,2779096485
-0.08115064239501953,0.010118250274658203,9.785265195465088,-0.0010109492586520385,0.009745544994451294,-0.003076110827567139,30.200000762939453,24484,,,,-0.07416991889476776,0.095703125,10.075146675109863,-0.033289529383182526,0.006657905410975218,-0.011451597325503826,39.49470520019531,,,,,,,,,,,,,,,,2779096485
-0.07445490036010742,0.008165233612060547,9.796106116485596,-0.0020338760842243957,0.0082621043563472,-0.00225043768467865,30.200000762939453,24485,,,,-0.06699218600988388,0.12202148139476776,10.044042587280273,-0.036751639097929,0.006924221757799387,-0.008788435719907284,39.40058898925781,,,,,,,,,,,,,,,,2779096485
-0.0712283218383789,0.006581533813476563,9.817060240936279,0.0001648363545376587,0.00867307005713852,-0.0004463924009486389,30.200000762939453,24486,14.550000190734863,-19.950000762939453,-70.5,-0.04067382961511612,0.12441406399011612,10.079931259155273,-0.03648532181978226,0.0050600082613527775,-0.012783179059624672,39.58882522583008,,,,,,,,,,,,,,,,2779096485
-0.0725775863647461,0.00861724395751953,9.827592930603027,-0.0006143646276483154,0.00840980326938797,-0.0007140001412461853,30.200000762939453,24487,,,,-0.09331054985523224,0.12441406399011612,10.027295112609863,-0.03462110832333565,0.004527375567704439,-0.012783179059624672,39.58882522583008,,,,,,,,,,,,,,,,2779096485
-0.07816720962524414,0.008982485961914062,9.824638096618653,0.0009544103490982056,0.009029101402921753,-0.001898967002230835,30.200000762939453,24488,,,,-0.083740234375,0.11005859076976776,10.082324028015137,-0.03834953531622887,0.006924221757799387,-0.010386332869529724,39.49470520019531,,,,,,,,,,,,,,,,2779096485
-0.0825057014465332,0.013434475708007812,9.811246014404297,-0.0003522296833532715,0.008569666170624084,-0.003070152004669037,30.200000762939453,24489,,,,-0.02631836012005806,0.107666015625,10.058398246765137,-0.03542005643248558,0.006125273182988167,-0.012250546365976334,39.49470520019531,,,,,,,,,,,,,,,,2779096485
-0.08048625335693359,0.013544235229492187,9.82063067779541,0.0013040168187957765,0.008592502776814575,-0.0005401756180912781,30.200000762939453,24490,15.149999618530273,-20.549999237060547,-70.5,-0.09809570014476776,0.06220703199505806,10.060791015625,-0.03861585259437561,0.006391589529812336,-0.009587383829057217,39.49470520019531,,,,,,,,,,,,,,,,2779096485
-0.08105120086669922,0.013146132659912109,9.813676985931396,8.149938669906616e-05,0.009210622461574097,-0.0015343136724777222,30.200000762939453,24491,,,,-0.10288085788488388,0.179443359375,10.039258003234863,-0.03275689482688904,0.005326324608176947,-0.009587383829057217,39.49470520019531,,,,,,,,,,,,,,,,2779096485
-0.07745276336669922,0.017566532897949218,9.801697122955321,-0.002122825664021759,0.0084663754684552,0.000737782169617157,30.100000381469727,24492,,,,-0.10048828274011612,0.10288085788488388,9.974658012390137,-0.03834953531622887,0.006391589529812336,-0.011185280978679657,39.49470520019531,,,,,,,,,,,,,,,,2779096485
-0.08449969100952148,0.01064887924194336,9.784921598815918,-0.001274848547157135,0.00858228289620163,-0.001713104991031494,30.0,24493,,,,-0.07895507663488388,0.08852539211511612,10.130175590515137,-0.03542005643248558,0.006391589529812336,-0.009853700175881386,39.58882522583008,,,,,,,,,,,,,,,,2779096485
-0.08280088577270507,0.011343773651123046,9.77689913482666,-0.00013885056037979125,0.00794967561521164,-0.002439342357402496,30.0,24494,15.0,-20.100000381469727,-70.3499984741211,-0.09091796725988388,0.16269531846046448,10.010546684265137,-0.03808322176337242,0.006924221757799387,-0.008522119373083115,39.58882522583008,,,,,,,,,,,,,,,,2779096485
-0.09128107986450194,0.013920729827880859,9.803584530639649,-0.00038830220007049564,0.00887460477124527,-0.002168658666067047,30.100000381469727,24495,,,,-0.09091796725988388,0.12202148139476776,10.118212699890137,-0.036751639097929,0.006125273182988167,-0.012250546365976334,39.58882522583008,,,,,,,,,,,,,,,,2779096485
-0.08672441482543945,0.008818295288085937,9.819523624420166,0.00015192668124221803,0.008015362483047028,-0.000898237624191742,30.200000762939453,24496,,,,-0.0071777342818677425,0.15791015326976776,10.111035346984863,-0.03488742560148239,0.009587383829057217,-0.014381076209247112,39.58882522583008,,,,,,,,,,,,,,,,2779096485
-0.09144579391479492,0.010220645141601562,9.823467378234863,-0.0002892392661030579,0.007923336952211762,-8.175904490356446e-05,30.200000762939453,24497,,,,-0.07177734375,0.12202148139476776,10.039258003234863,-0.03408847749233246,0.0013315811520442367,-0.011451597325503826,39.49470520019531,,,,,,,,,,,,,,,,2779096485
-0.0983792236328125,0.013265163421630859,9.822047495269775,-0.00028963208236114504,0.008100390558166198,-0.0003540739223954773,30.200000762939453,24498,15.300000190734863,-20.549999237060547,-70.19999694824219,-0.02153320237994194,0.17465820908546448,10.134961128234863,-0.03275689482688904,0.004527375567704439,-0.012783179059624672,39.49470520019531,,,,,,,,,,,,,,,,2779096485
-0.09682752456665039,0.012591989135742188,9.837489979553222,-0.001161005069241333,0.00808134895650299,-0.002524530222185974,30.200000762939453,24499,,,,-0.11723633110523224,0.107666015625,10.02490234375,-0.03781690448522568,0.0010652649216353893,-0.008788435719907284,39.49470520019531,,,,,,,,,,,,,,,,2779096485
-0.09870543670654297,0.016393534088134765,9.840756409454345,-0.0008987169931846618,0.007815645376371765,-0.002162247105786743,30.200000762939453,24500,,,,-0.18422850966453552,0.13876953721046448,10.020116806030273,-0.033822160214185715,0.006657905410975218,-0.008788435719907284,39.49470520019531,,,,,,,,,,,,,,,,2779096485
-0.09736835937499999,0.010968363189697265,9.84042428970337,0.00014216619591415406,0.007994809537475585,-0.0012613063731071472,30.200000762939453,24501,,,,-0.10288085788488388,0.10288085788488388,10.070361137390137,-0.03648532181978226,0.006391589529812336,-0.010918965563178062,39.49470520019531,,,,,,,,,,,,,,,,2779096485
-0.10267621917724609,0.012816368103027343,9.839948876953125,-0.0023170167114730834,0.00696732870647049,-0.0017038105588909913,30.100000381469727,24502,14.550000190734863,-19.5,-70.05000305175781,-0.07416991889476776,0.1435546875,10.0009765625,-0.03648532181978226,0.004527375567704439,-0.010120016522705555,39.49470520019531,,,,,,,,,,,,,,,,2779096485
-0.10440343627929687,0.01293214645385742,9.82705878753662,-0.0014466290941894532,0.007682447375366821,-0.0020716064187088013,30.100000381469727,24503,,,,-0.11484374850988388,0.095703125,10.14453125,-0.03808322176337242,0.006125273182988167,-0.006391589529812336,39.49470520019531,,,,,,,,,,,,,,,,2779096485
-0.10309480819702148,0.010709964752197265,9.83351930923462,-0.0013603493333665467,0.007955314858781128,-0.0016200408273782348,30.100000381469727,24504,,,,-0.03828125074505806,0.107666015625,10.044042587280273,-0.033822160214185715,0.003195794764906168,-0.009587383829057217,39.49470520019531,,,,,,,,,,,,,,,,2779096485
-0.10070854797363281,0.008584121704101562,9.83790415725708,-0.0009518204249559021,0.008814650357616883,-0.0009022523395074463,30.0,24505,,,,-0.03349609300494194,0.11005859076976776,10.091894149780273,-0.03941480070352554,0.0018642136128619313,-0.007456854451447725,39.49470520019531,,,,,,,,,,,,,,,,2779096485
-0.09864266891479492,0.006304742431640625,9.834583221435546,-0.0011962386902209473,0.008115776971258393,-0.00180321970379776,30.0,24506,15.300000190734863,-20.549999237060547,-70.80000305175781,-0.10527344048023224,0.07416991889476776,10.070361137390137,-0.035153742879629135,0.0010652649216353893,-0.009321067482233047,39.49470520019531,,,,,,,,,,,,,,,,2779096485
-0.10009814147949218,0.008890633392333983,9.828657553100586,-0.0009243965238192749,0.008043884938125762,-0.001802993335106659,30.0,24507,,,,-0.12441406399011612,0.10527344048023224,10.02490234375,-0.03781690448522568,0.006657905410975218,-0.012250546365976334,39.49470520019531,,,,,,,,,,,,,,,,2779096485
-0.10603577270507812,0.006484709167480469,9.833828026580811,-0.00057591523967453,0.008306386067068176,-0.0026202109415922547,30.0,24508,,,,-0.06938476860523224,0.10048828274011612,9.972265243530273,-0.035153742879629135,0.003994743339717388,-0.011185280978679657,39.58882522583008,,,,,,,,,,,,,,,,2779096485
-0.10231845397949219,0.007574603271484375,9.824257788848877,-0.0005757687658155823,0.00830335672134903,-0.002982454110575409,30.0,24509,,,,-0.21293945610523224,0.11962890625,10.132568359375,-0.03808322176337242,0.004793691914528608,-0.011984230019152164,39.49470520019531,,,,,,,,,,,,,,,,2779096485
-0.10039994277954101,0.009809757232666015,9.827534798431396,-0.0007487277616221619,0.007427782597878112,-0.0004429768968740845,30.0,24510,15.149999618530273,-20.100000381469727,-70.80000305175781,-0.095703125,0.07656250149011612,10.108642578125,-0.03542005643248558,0.007723170332610607,-0.009587383829057217,39.58882522583008,,,,,,,,,,,,,,,,2779096485
-0.09679496307373046,0.006178533935546875,9.825895433807373,-0.00012344417357955931,0.007795864747511139,-0.0025280455948007204,30.100000381469727,24511,,,,-0.10048828274011612,0.14833983778953552,10.029687881469727,-0.037017956376075745,0.007456854451447725,-0.010918965563178062,39.58882522583008,,,,,,,,,,,,,,,,2779096485
-0.08954447937011718,0.005540388488769531,9.818947648620606,-0.0004616856034033203,0.007459693925420685,-0.0018908243872538758,30.100000381469727,24512,,,,-0.06699218600988388,0.12919922173023224,10.063183784484863,-0.03595269098877907,0.0034621108788996935,-0.009054751135408878,39.49470520019531,,,,,,,,,,,,,,,,2779096485
-0.08669005889892578,0.0064252685546874995,9.824026605987548,0.00014641393782363892,0.008440509516545562,-0.0026208967055682372,30.100000381469727,24513,,,,-0.09331054985523224,0.13398437201976776,10.063183784484863,-0.03781690448522568,0.002929478418081999,-0.01491370890289545,39.58882522583008,,,,,,,,,,,,,,,,2779096485
-0.08519731445312499,0.0021579933166503903,9.823340758514403,-0.00228416661965271,0.00774214878869339,-0.0021562549933752443,30.200000762939453,24514,15.300000190734863,-20.25,-70.80000305175781,-0.10048828274011612,0.13637694716453552,10.060791015625,-0.036751639097929,0.004527375567704439,-0.012250546365976334,39.49470520019531,,,,,,,,,,,,,,,,2779096485
-0.07572719116210937,0.0028287376403808595,9.830655953979491,-0.0020088889754684446,0.008048285811796875,-0.0008890097710780334,30.200000762939453,24515,,,,-0.08852539211511612,0.13637694716453552,10.0966796875,-0.03968111798167229,0.004261059686541557,-0.011185280978679657,39.58882522583008,,,,,,,,,,,,,,,,2779096485
-0.07636556091308594,0.002098926544189453,9.831106468963624,-0.0026457107088545227,0.0071631509400782774,-0.0038750658070030213,30.200000762939453,24516,,,,-0.04545898362994194,0.11245117336511612,10.082324028015137,-0.035686373710632324,0.0037284272257238626,-0.007456854451447725,39.58882522583008,,,,,,,,,,,,,,,,2779096485
-0.07387787780761719,-0.00024647293090820314,9.829011168670654,0.0004731438539146423,0.007498915630105286,-0.002802144790210724,30.200000762939453,24517,,,,-0.09091796725988388,0.11723633110523224,10.089502334594727,-0.03781690448522568,0.005326324608176947,-0.012250546365976334,39.49470520019531,,,,,,,,,,,,,,,,2779096485
-0.07142484970092773,0.0011106422424316405,9.830409630584716,-0.0015312110898291016,0.0069521686620693975,-0.0036083369098591613,30.200000762939453,24518,15.149999618530273,-19.799999237060547,-69.9000015258789,-0.14594726264476776,0.06938476860523224,10.015332221984863,-0.036751639097929,0.0055926404893398285,-0.011451597325503826,39.49470520019531,,,,,,,,,,,,,,,,2779096485
-0.07085279922485352,6.990814208984375e-05,9.831233836364746,-0.0004866327647431946,0.007588404500019684,-0.002708561310148468,30.200000762939453,24519,,,,-0.11723633110523224,0.08613280951976776,10.029687881469727,-0.03462110832333565,0.003195794764906168,-0.013315810821950436,39.58882522583008,,,,,,,,,,,,,,,,2779096485
-0.07432805633544921,-0.0013716949462890624,9.820923693847655,-0.00013677329474380494,0.006977788271579895,-0.0007152185374365234,30.200000762939453,24520,,,,-0.05502929538488388,0.10048828274011612,10.115819931030273,-0.03542005643248558,0.0050600082613527775,-0.010386332869529724,39.58882522583008,,,,,,,,,,,,,,,,2779096485
-0.07171498718261718,0.00037077484130859374,9.824968496704102,-0.0010098107572938538,0.007499754525842895,-0.0025253025388967897,30.200000762939453,24521,,,,-0.05742187425494194,0.10048828274011612,10.051220893859863,-0.036751639097929,0.005858956836163998,-0.010652649216353893,39.49470520019531,,,,,,,,,,,,,,,,2779096485
-0.07328459320068359,-0.0028974868774414063,9.828726190185547,-0.0006595052078149414,0.006880030286537628,-0.0016186959310369874,30.200000762939453,24522,15.300000190734863,-20.700000762939453,-70.3499984741211,-0.08852539211511612,0.10048828274011612,10.082324028015137,-0.035686373710632324,0.004261059686541557,-0.011451597325503826,39.49470520019531,,,,,,,,,,,,,,,,2779096485
-0.07136899795532227,-0.002403382110595703,9.833301322937011,-0.0011871173635501098,0.006856354784609528,-0.003337966139949646,30.200000762939453,24523,,,,-0.08613280951976776,0.11005859076976776,10.070361137390137,-0.0391484834253788,0.006924221757799387,-0.012516862712800503,39.49470520019531,,,,,,,,,,,,,,,,2779096485
-0.06841479949951172,0.0019332778930664062,9.827858058166504,-0.0008627177133969117,0.008100457137192993,-0.0005378054047373963,30.100000381469727,24524,,,,-0.131591796875,0.12919922173023224,10.099072456359863,-0.037017956376075745,0.003994743339717388,-0.009853700175881386,39.49470520019531,,,,,,,,,,,,,,,,2779096485
-0.06802062225341797,0.0024190834045410155,9.82791940536499,-0.0004260125608468628,0.007920034632482758,-0.0007198124902853394,30.100000381469727,24525,15.449999809265137,-20.25,-71.8499984741211,-0.08134765923023224,0.17465820908546448,10.039258003234863,-0.037550587207078934,0.004261059686541557,-0.012783179059624672,39.49470520019531,,,,,,,,,,,,,,,,2779096485
-0.06812810134887695,-0.00037021408081054684,9.824359398651122,-0.0007451125204672241,0.007886372276535492,-0.00026301378744873045,30.200000762939453,24526,,,,-0.08852539211511612,0.07656250149011612,10.087109565734863,-0.03621900454163551,0.004261059686541557,-0.011717913672327995,39.49470520019531,,,,,,,,,,,,,,,,2779096485
-0.07214445495605469,-0.0012649635314941406,9.822599732208252,-0.0005250621790089416,0.00794488192528244,-0.0027050992007551576,30.30000114440918,24527,,,,-0.07656250149011612,0.11962890625,10.115819931030273,-0.036751639097929,0.006657905410975218,-0.013848443515598774,39.49470520019531,,,,,,,,,,,,,,,,2779096485
-0.07264375610351562,0.0002489776611328125,9.82543288116455,0.0007817043535934448,0.008570764724566193,-0.003074093483055267,30.30000114440918,24528,,,,-0.07416991889476776,0.10048828274011612,10.015332221984863,-0.03728426992893219,0.0026631623040884733,-0.007723170332610607,39.49470520019531,,,,,,,,,,,,,,,,2779096485
-0.0748232078552246,-0.00022422943115234375,9.823652765655517,-0.0003515239456692505,0.008132721333577576,-0.0017101488822418214,30.30000114440918,24529,15.0,-20.549999237060547,-70.6500015258789,-0.05263672024011612,0.09809570014476776,10.063183784484863,-0.03781690448522568,0.0026631623040884733,-0.013315810821950436,39.58882522583008,,,,,,,,,,,,,,,,2779096485
-0.07735956497192382,0.004518122100830078,9.828596841430663,-0.0011600330154501342,0.007723453397969513,-0.0024327110863337706,30.200000762939453,24530,,,,-0.07177734375,0.06699218600988388,10.029687881469727,-0.03728426992893219,0.003195794764906168,-0.010918965563178062,39.58882522583008,,,,,,,,,,,,,,,,2779096485
-0.07907926788330077,0.008501839447021485,9.823871312713623,-0.0006353436789912415,0.007189775892893372,-0.0019798405460780336,30.200000762939453,24531,,,,-0.04545898362994194,0.12919922173023224,10.087109565734863,-0.035153742879629135,0.004793691914528608,-0.008522119373083115,39.58882522583008,,,,,,,,,,,,,,,,2779096485
-0.08226831283569336,0.0022664817810058593,9.824317042541503,-0.0013292502699508667,0.0059262324644859315,-0.002878630776192169,30.200000762939453,24532,,,,-0.08613280951976776,0.08852539211511612,9.957910537719727,-0.037017956376075745,0.004793691914528608,-0.010652649216353893,39.49470520019531,,,,,,,,,,,,,,,,2779096485
-0.08551156463623047,0.002194853973388672,9.830091567230225,-0.00047085353539291384,0.007088828772467652,-0.001256452762053833,30.30000114440918,24533,15.899999618530273,-20.100000381469727,-69.44999694824219,0.0,0.1435546875,10.039258003234863,-0.037017956376075745,0.007190538104623556,-0.009054751135408878,39.58882522583008,,,,,,,,,,,,,,,,2779096485
-0.08841981811523437,0.005756056976318359,9.83369613571167,-0.001296426809741211,0.007374386218388977,-0.0015299527462226867,30.30000114440918,24534,,,,-0.05742187425494194,0.12919922173023224,10.084716796875,-0.03542005643248558,0.0018642136128619313,-0.008522119373083115,39.58882522583008,,,,,,,,,,,,,,,,2779096485
-0.08792818069458007,0.005751496124267578,9.826445016479491,-0.0005134374809306336,0.008177568966026305,-0.0020788768484347533,30.30000114440918,24535,,,,-0.08613280951976776,0.10048828274011612,10.106249809265137,-0.035686373710632324,0.005326324608176947,-0.008255803026258945,39.49470520019531,,,,,,,,,,,,,,,,2779096485
-0.09274275817871093,0.011873804473876953,9.822625340270996,-0.0015333482765892028,0.007587392498812408,-0.0027049194373828123,30.200000762939453,24536,,,,-0.01914062537252903,0.13398437201976776,10.067968368530273,-0.03621900454163551,0.005858956836163998,-0.008522119373083115,39.58882522583008,,,,,,,,,,,,,,,,2779096485
-0.09263550338745116,0.009929423522949218,9.821371704101562,0.00035673708346725463,0.008981597267303925,-0.0025375464219242858,30.100000381469727,24537,15.300000190734863,-20.399999618530273,-69.9000015258789,-0.07416991889476776,0.08852539211511612,10.041650772094727,-0.03648532181978226,0.0034621108788996935,-0.011984230019152164,39.58882522583008,,,,,,,,,,,,,,,,2779096485
-0.09312777633666992,0.014861573791503905,9.822472439575195,-0.0023439079803953553,0.007558004516385345,-0.0008930045126856994,30.100000381469727,24538,,,,-0.155517578125,0.16748046875,10.077539443969727,-0.03834953531622887,0.006125273182988167,-0.010652649216353893,39.49470520019531,,,,,,,,,,,,,,,,2779096485
-0.09334613647460938,0.01101771011352539,9.824080102539062,-0.0015400461266847228,0.006490123531921387,-0.0031547806056274412,30.200000762939453,24539,,,,-0.08134765923023224,0.14116211235523224,10.041650772094727,-0.037017956376075745,0.005858956836163998,-0.010652649216353893,39.49470520019531,,,,,,,,,,,,,,,,2779096485
-0.09588668060302734,0.014793609619140625,9.826418174743653,-0.0015076887196626282,0.007106092714115448,-0.0011614311750128175,30.30000114440918,24540,,,,-0.107666015625,0.11484374850988388,10.101465225219727,-0.03941480070352554,0.006391589529812336,-0.011451597325503826,39.58882522583008,,,,,,,,,,,,,,,,2779096485
-0.09694479827880859,0.010301469421386718,9.83114762878418,-0.0009903031024430847,0.009425706007633514,-0.0026204040207699585,30.30000114440918,24541,16.049999237060547,-20.549999237060547,-69.9000015258789,-0.035888671875,0.11484374850988388,10.106249809265137,-0.035686373710632324,0.0050600082613527775,-0.009853700175881386,39.49470520019531,,,,,,,,,,,,,,,,2779096485
-0.1004164665222168,0.01682423553466797,9.833187937164306,-0.001598675617679901,0.006650452486345063,-0.0009788448519317627,30.30000114440918,24542,,,,-0.11005859076976776,0.095703125,10.084716796875,-0.03542005643248558,0.006125273182988167,-0.014114759862422943,39.49470520019531,,,,,,,,,,,,,,,,2779096485
-0.0942066421508789,0.01571243438720703,9.823965969085693,-0.002342376662779083,0.007188730602172699,-0.0021596105763256835,30.100000381469727,24543,,,,-0.05502929538488388,0.12441406399011612,10.067968368530273,-0.03595269098877907,0.0021305298432707787,-0.011451597325503826,39.49470520019531,,,,,,,,,,,,,,,,2779096485
-0.09817170486450195,0.013805362701416015,9.832373114776612,-0.0018215422519715881,0.008085876330325013,-0.002164570713821869,30.100000381469727,24544,,,,-0.11245117336511612,0.11962890625,10.108642578125,-0.03621900454163551,0.007723170332610607,-0.009321067482233047,39.58882522583008,,,,,,,,,,,,,,,,2779096485
-0.09430043869018555,0.01443240509033203,9.82419490890503,-0.0017299161952970886,0.008106089722859802,-0.0008060389878868104,30.100000381469727,24545,15.0,-20.700000762939453,-70.05000305175781,-0.10288085788488388,0.155517578125,10.041650772094727,-0.03648532181978226,0.004527375567704439,-0.01491370890289545,39.49470520019531,,,,,,,,,,,,,,,,2779096485
-0.09010112762451171,0.018876768493652343,9.82136385345459,-0.0006122141250828552,0.006984819016809387,-0.002166281794810486,30.100000381469727,24546,,,,-0.059814453125,0.12680664658546448,10.051220893859863,-0.036751639097929,0.005858956836163998,-0.013582127168774605,39.58882522583008,,,,,,,,,,,,,,,,2779096485
-0.0924420783996582,0.01428559799194336,9.821314805603027,-0.00044563340004318236,0.006503232942297211,-0.004067938589723816,30.100000381469727,24547,,,,-0.095703125,0.16987304389476776,10.032079696655273,-0.038882169872522354,0.005326324608176947,-0.011451597325503826,39.58882522583008,,,,,,,,,,,,,,,,2779096485
-0.092398974609375,0.015768061828613282,9.823938342285157,-0.0021108614129067994,0.0089452983818956,-0.0013537979571299744,30.100000381469727,24548,,,,-0.095703125,0.13876953721046448,10.039258003234863,-0.037550587207078934,0.0026631623040884733,-0.013049494475126266,39.58882522583008,,,,,,,,,,,,,,,,2779096485
-0.09189608459472656,0.014155389404296875,9.823248831176757,-0.002213346508851471,0.007289511275031433,-0.0020739500004519655,30.100000381469727,24549,15.600000381469727,-19.649999618530273,-69.44999694824219,-0.1435546875,0.131591796875,10.022509574890137,-0.03808322176337242,0.006657905410975218,-0.009853700175881386,39.58882522583008,,,,,,,,,,,,,,,,2779096485
-0.09331563110351562,0.015293658447265624,9.821626364135742,-3.850265119522095e-05,0.007468089540699463,-0.001358072330650177,30.0,24550,,,,-0.13637694716453552,0.107666015625,10.041650772094727,-0.037017956376075745,0.003994743339717388,-0.010918965563178062,39.49470520019531,,,,,,,,,,,,,,,,2779096485
-0.09010752029418945,0.01306695327758789,9.827576930236816,-0.0022211495707917784,0.008266884730471038,-0.002077804926103363,30.0,24551,,,,-0.09809570014476776,0.10527344048023224,10.046435356140137,-0.03728426992893219,0.003195794764906168,-0.013848443515598774,39.49470520019531,,,,,,,,,,,,,,,,2779096485
-0.0876761749267578,0.011264033508300781,9.834684644317626,-0.002011791821036682,0.00481293126794281,-0.002245257836394043,30.100000381469727,24552,,,,-0.10048828274011612,0.06459961086511612,10.108642578125,-0.03808322176337242,0.003994743339717388,-0.0055926404893398285,39.58882522583008,,,,,,,,,,,,,,,,2779096485
-0.08389769592285155,0.009479170227050781,9.827853833770751,-0.0017306485645918275,0.006743276965501862,-0.0018884808055107116,30.200000762939453,24553,15.449999809265137,-20.700000762939453,-71.0999984741211,-0.107666015625,0.09809570014476776,10.103857040405273,-0.036751639097929,0.003994743339717388,-0.01491370890289545,39.68294143676758,,,,,,,,,,,,,,,,2779096485
-0.08323880233764648,0.009758765411376952,9.825833413696289,-0.0011200922572761536,0.006744635177648468,-0.0018000438842196655,30.200000762939453,24554,,,,-0.11005859076976776,0.13637694716453552,10.053613662719727,-0.03595269098877907,0.0034621108788996935,-0.011717913672327995,39.49470520019531,,,,,,,,,,,,,,,,2779096485
-0.08212139358520508,0.012138819885253905,9.823887761688232,-0.0012291220715547181,0.008971077781070404,-0.00045038714255630493,30.200000762939453,24555,,,,-0.12680664658546448,0.09091796725988388,10.046435356140137,-0.03861585259437561,0.003994743339717388,-0.012783179059624672,39.49470520019531,,,,,,,,,,,,,,,,2779096485
-0.08131984252929687,0.008999458312988281,9.823781366729737,6.821021295089722e-05,0.007769825690131836,-0.0017199559728886414,30.0,24556,,,,-0.06938476860523224,0.13876953721046448,10.053613662719727,-0.034354791045188904,0.0055926404893398285,-0.012783179059624672,39.49470520019531,,,,,,,,,,,,,,,,2779096485
-0.07790742797851562,0.008158616638183593,9.825519462585449,-0.0008028232208926392,0.009122857988453675,-0.001721227632300415,30.0,24557,15.0,-21.0,-70.94999694824219,-0.12680664658546448,0.08852539211511612,9.993799209594727,-0.037550587207078934,0.0050600082613527775,-0.014647392556071281,39.58882522583008,,,,,,,,,,,,,,,,2779096485
-0.08155603485107421,0.007650642395019531,9.825994688415527,-0.0012974721004618836,0.007733793120830688,-0.001440650297583313,30.100000381469727,24558,,,,-0.12680664658546448,0.14594726264476776,9.974658012390137,-0.03621900454163551,0.005858956836163998,-0.010386332869529724,39.49470520019531,,,,,,,,,,,,,,,,2779096485
-0.07732711563110352,0.008974224090576171,9.834269083404541,-0.0009859887815068054,0.007647606570645294,-0.0008028897999194336,30.200000762939453,24559,,,,-0.08613280951976776,0.11723633110523224,10.091894149780273,-0.036751639097929,0.0037284272257238626,-0.011717913672327995,39.49470520019531,,,,,,,,,,,,,,,,2779096485
-0.07854744262695312,0.006731294250488281,9.832416442871093,-0.0005469600209216308,0.006912527509515991,-0.0029753834179298403,30.200000762939453,24560,,,,-0.09809570014476776,0.10048828274011612,10.118212699890137,-0.03968111798167229,0.004261059686541557,-0.01704423874616623,39.49470520019531,,,,,,,,,,,,,,,,2779096485
-0.08006721572875976,0.0018546966552734374,9.834530061340331,-0.0009843243058369445,0.007190954341667633,-0.0017975005653961182,30.200000762939453,24561,16.200000762939453,-20.25,-70.19999694824219,-0.083740234375,0.11005859076976776,10.036865234375,-0.03861585259437561,0.003994743339717388,-0.006391589529812336,39.49470520019531,,,,,,,,,,,,,,,,2779096485
-0.07660889358520508,0.0020141395568847656,9.829375625610352,-0.000874195937616272,0.00786474075072998,-0.001526264268138275,30.30000114440918,24562,,,,-0.07656250149011612,0.09809570014476776,10.041650772094727,-0.03834953531622887,0.003195794764906168,-0.010652649216353893,39.58882522583008,,,,,,,,,,,,,,,,2779096485
-0.0781907241821289,0.0017521148681640625,9.83561767501831,-0.00035184352499786377,0.0083082569377211,-0.0021635853442253114,30.30000114440918,24563,,,,-0.08134765923023224,0.11962890625,10.149316787719727,-0.037017956376075745,0.004527375567704439,-0.010918965563178062,39.49470520019531,,,,,,,,,,,,,,,,2779096485
-0.07986018295288086,0.0002798194885253906,9.823757740020751,-0.0019202989224157716,0.0075134165421411134,-0.0005251820212571716,30.30000114440918,24564,,,,-0.06699218600988388,0.11245117336511612,10.108642578125,-0.03781690448522568,0.003994743339717388,-0.011984230019152164,39.58882522583008,,,,,,,,,,,,,,,,2779096485
-0.081098828125,-0.0007299232482910156,9.826411819458007,-0.0026663968124795534,0.007145560761199188,-0.0017937854557009889,30.100000381469727,24565,15.600000381469727,-20.25,-70.3499984741211,-0.08134765923023224,0.11245117336511612,10.108642578125,-0.03728426992893219,0.006657905410975218,-0.011451597325503826,39.58882522583008,,,,,,,,,,,,,,,,2779096485
-0.08029899673461914,0.0011947189331054688,9.833011783599853,-0.0012769324706958008,0.006618834106520386,-0.002077132477932739,29.80000114440918,24566,,,,-0.11005859076976776,0.07416991889476776,10.075146675109863,-0.037550587207078934,0.003994743339717388,-0.014381076209247112,39.49470520019531,,,,,,,,,,,,,,,,2779096485
-0.08311319198608398,0.0005102172851562499,9.831322436523438,-0.0007604989335594178,0.0069889535743733215,0.0002739793531617737,29.80000114440918,24567,,,,-0.11962890625,0.10527344048023224,10.07275390625,-0.03648532181978226,0.0018642136128619313,-0.0050600082613527775,39.58882522583008,,,,,,,,,,,,,,,,2779096485
-0.07964114990234375,-5.203857421875e-05,9.83169022064209,-0.0015213573938635254,0.00755436930152237,-0.0016249277279449463,29.899999618530273,24568,,,,-0.09809570014476776,0.11723633110523224,10.048828125,-0.03488742560148239,0.0026631623040884733,-0.011984230019152164,39.49470520019531,,,,,,,,,,,,,,,,2779096485
-0.08310279922485352,-0.0006298088073730468,9.834274279785156,-0.0014947790463671875,0.0071435101271739194,-0.0024363862486128235,30.0,24569,14.699999809265137,-20.25,-70.6500015258789,-0.05742187425494194,0.10527344048023224,10.130175590515137,-0.03648532181978226,0.0026631623040884733,-0.011717913672327995,39.58882522583008,,,,,,,,,,,,,,,,2779096485
-0.08349032211303711,-0.003196484375,9.828703498077392,-0.0013258214500709534,0.008946057382801057,-0.0013565343551312256,30.0,24570,,,,-0.11484374850988388,0.11484374850988388,10.051220893859863,-0.03621900454163551,0.005858956836163998,-0.012783179059624672,39.58882522583008,,,,,,,,,,,,,,,,2779096485
-0.08165147628784179,0.004317182922363281,9.8299067779541,-0.0012483101470768738,0.007288745616223297,-0.0033447438848773193,30.0,24571,,,,-0.14116211235523224,0.08613280951976776,10.075146675109863,-0.037550587207078934,0.0050600082613527775,-0.013582127168774605,39.49470520019531,,,,,,,,,,,,,,,,2779096485
-0.08306163940429687,0.0009137031555175781,9.8371420463562,-0.0015191403122712707,0.006914265222115326,-0.0030717032959933473,29.899999618530273,24572,,,,-0.05742187425494194,0.083740234375,10.051220893859863,-0.035686373710632324,0.004527375567704439,-0.014114759862422943,39.49470520019531,,,,,,,,,,,,,,,,2779096485
-0.08554707946777343,0.0034153678894042966,9.830329628753661,-0.0021304955679084777,0.007013953998934631,-0.001802034597120819,29.899999618530273,24573,15.449999809265137,-20.549999237060547,-70.19999694824219,-0.09809570014476776,0.155517578125,10.075146675109863,-0.035153742879629135,0.003994743339717388,-0.009587383829057217,39.58882522583008,,,,,,,,,,,,,,,,2779096485
-0.08492856063842773,0.0043428657531738276,9.83413565979004,-0.0002976748287979126,0.008542109111433868,-0.002628386846082611,30.0,24574,,,,-0.059814453125,0.06699218600988388,10.084716796875,-0.03595269098877907,0.002929478418081999,-0.012250546365976334,39.58882522583008,,,,,,,,,,,,,,,,2779096485
-0.08820568237304688,-0.00017955551147460938,9.832566614532471,-0.0012340822090509034,0.0074173097169633485,-0.0018948657341802979,30.0,24575,,,,-0.11723633110523224,0.07416991889476776,10.067968368530273,-0.03542005643248558,0.004261059686541557,-0.011185280978679657,39.58882522583008,,,,,,,,,,,,,,,,2779096485
-0.08972373580932617,0.002222966766357422,9.827091909790038,0.000236621861227417,0.0063182830637649534,-0.0016257799394879151,30.0,24576,15.0,-19.799999237060547,-69.75,-0.14594726264476776,0.12202148139476776,10.0966796875,-0.03462110832333565,0.004527375567704439,-0.012783179059624672,39.49470520019531,,,,,,,,,,,,,,,,2779096485
-0.09031197357177734,0.0027549041748046875,9.832031312561035,-0.0022184398044012453,0.0073664566562977605,-0.002527473015170288,30.0,24577,,,,-0.05024414137005806,0.08852539211511612,10.005762100219727,-0.03621900454163551,0.0026631623040884733,-0.008522119373083115,39.58882522583008,,,,,,,,,,,,,,,,2779096485
-0.08663491744995117,0.0031762222290039064,9.830093249511718,-0.0015224093424868774,0.007741709367116547,-0.0006293648823851013,30.0,24578,,,,-0.10527344048023224,0.08134765923023224,10.0966796875,-0.037550587207078934,0.006125273182988167,-0.011717913672327995,39.58882522583008,,,,,,,,,,,,,,,,2779096485
-0.09332875289916992,0.0024889167785644532,9.832572184753417,-0.001694196547421875,0.006841873846281738,-0.0009878663100624085,30.0,24579,,,,-0.083740234375,0.095703125,10.101465225219727,-0.035686373710632324,0.005326324608176947,-0.012516862712800503,39.58882522583008,,,,,,,,,,,,,,,,2779096485
-0.09002576141357421,0.006896643829345703,9.832025966644286,-0.0007367368788964843,0.007813940953285827,-0.0028058865315165713,30.0,24580,15.600000381469727,-19.5,-70.5,-0.12680664658546448,0.11484374850988388,10.12060546875,-0.03781690448522568,0.005326324608176947,-0.007190538104623556,39.49470520019531,,,,,,,,,,,,,,,,2779096485
-0.09028449630737305,0.008295479583740235,9.832346945953368,-0.0005860485675526428,0.006746732416992493,-0.0037028391804911805,30.30000114440918,24581,,,,-0.09091796725988388,0.05024414137005806,10.036865234375,-0.03861585259437561,0.0050600082613527775,-0.011717913672327995,39.40058898925781,,,,,,,,,,,,,,,,2779096485
-0.0912194709777832,0.010686749267578125,9.829032178497314,-0.0017987988564186095,0.008593907594279937,-0.0002622947339593506,30.30000114440918,24582,,,,-0.11245117336511612,0.08134765923023224,10.132568359375,-0.038882169872522354,0.0050600082613527775,-0.010918965563178062,39.49470520019531,,,,,,,,,,,,,,,,2779096485
-0.0869198959350586,0.011938105010986327,9.83256463317871,-0.000662501264020691,0.007955228306046296,-0.0017130250961993408,30.30000114440918,24583,,,,-0.04306640475988388,0.16269531846046448,10.108642578125,-0.035686373710632324,0.004527375567704439,-0.008255803026258945,39.58882522583008,,,,,,,,,,,,,,,,2779096485
-0.0904166488647461,0.013573619079589844,9.822278266906737,-0.0003332480028141785,0.007832390001610566,-0.0015344468305313111,30.30000114440918,24584,15.600000381469727,-20.25,-70.3499984741211,-0.059814453125,0.12441406399011612,10.082324028015137,-0.03994743525981903,0.004261059686541557,-0.008255803026258945,39.58882522583008,,,,,,,,,,,,,,,,2779096485
-0.08984519653320312,0.01262481231689453,9.822985423278809,1.0399643985290527e-05,0.008168214612761689,-0.0032579980708668517,30.200000762939453,24585,,,,-0.07177734375,0.12680664658546448,9.900487899780273,-0.03488742560148239,0.007190538104623556,-0.010120016522705555,39.58882522583008,,,,,,,,,,,,,,,,2779096485
-0.0892790153503418,0.011348708343505858,9.821516567230224,-0.0001455683841833496,0.006599339767474976,-0.0009864681504997254,30.200000762939453,24586,,,,-0.08852539211511612,0.11245117336511612,10.118212699890137,-0.03861585259437561,0.002396845957264304,-0.009853700175881386,39.58882522583008,,,,,,,,,,,,,,,,2779096485
-0.09181469955444335,0.012978764343261718,9.81978359298706,-0.00025237445896697996,0.008359422919812622,-0.0018087324472163392,30.100000381469727,24587,,,,-0.02631836012005806,0.14116211235523224,10.079931259155273,-0.035686373710632324,0.007456854451447725,-0.011717913672327995,39.58882522583008,,,,,,,,,,,,,,,,2779096485
-0.0856484649658203,0.014532145690917968,9.822517263031006,7.60532223072815e-05,0.006960397829781189,-0.003075152089581299,30.0,24588,15.149999618530273,-19.950000762939453,-69.9000015258789,-0.10048828274011612,0.10288085788488388,10.154101371765137,-0.03861585259437561,0.0055926404893398285,-0.012516862712800503,39.49470520019531,,,,,,,,,,,,,,,,2779096485
-0.09265475616455078,0.016299288940429688,9.828666525268554,0.00033267542318374634,0.008585219031283264,-0.0018138457164741516,30.0,24589,,,,-0.11484374850988388,0.10288085788488388,10.091894149780273,-0.03408847749233246,0.0055926404893398285,-0.011185280978679657,39.49470520019531,,,,,,,,,,,,,,,,2779096485
-0.08644953002929687,0.015008567810058594,9.825994763183594,-0.0011310112176704406,0.007085772795137787,-0.0018021211498556518,30.100000381469727,24590,,,,-0.07895507663488388,0.16030272841453552,10.036865234375,-0.03621900454163551,0.004527375567704439,-0.009054751135408878,39.58882522583008,,,,,,,,,,,,,,,,2779096485
-0.08409975662231445,0.013911159515380859,9.823679084014893,-0.0021185046851828005,0.007363873390058136,-0.002428117133484955,30.30000114440918,24591,,,,-0.10527344048023224,0.155517578125,10.122998237609863,-0.0391484834253788,0.005858956836163998,-0.010386332869529724,39.49470520019531,,,,,,,,,,,,,,,,2779096485
-0.08687866134643554,0.01749610137939453,9.828640132141112,-0.0018587466121443175,0.00791044725262436,-0.0014347314221012878,30.30000114440918,24592,14.850000381469727,-19.649999618530273,-70.05000305175781,-0.10048828274011612,0.11245117336511612,10.032079696655273,-0.036751639097929,0.0050600082613527775,-0.011451597325503826,39.58882522583008,,,,,,,,,,,,,,,,2779096485
-0.08316496887207031,0.012163904571533202,9.825777001190184,-0.0004683767955961609,0.007993457983231658,-0.0013497499523008728,30.30000114440918,24593,,,,-0.01674804650247097,0.08613280951976776,10.084716796875,-0.03595269098877907,0.003994743339717388,-0.014381076209247112,39.58882522583008,,,,,,,,,,,,,,,,2779096485
-0.0840237922668457,0.01429098129272461,9.820217472076415,-0.0005981326609158325,0.007365204970594025,-0.0027096798377986143,30.100000381469727,24594,,,,-0.06459961086511612,0.16269531846046448,10.161279678344727,-0.037017956376075745,0.0055926404893398285,-0.013848443515598774,39.58882522583008,,,,,,,,,,,,,,,,2779096485
-0.085807421875,0.009958470916748046,9.823518519592286,-0.0012808273437632752,0.008763471059720002,-0.0004462792166030884,30.100000381469727,24595,,,,-0.11484374850988388,0.14833983778953552,10.101465225219727,-0.035686373710632324,0.006125273182988167,-0.011717913672327995,39.49470520019531,,,,,,,,,,,,,,,,2779096485
-0.08059119033813476,0.012600064086914062,9.829076254272461,-0.0011802197763742066,0.00614931880956604,-0.003153921736181793,30.100000381469727,24596,15.449999809265137,-20.25,-70.19999694824219,-0.11245117336511612,0.06459961086511612,10.103857040405273,-0.03781690448522568,0.006924221757799387,-0.010652649216353893,39.49470520019531,,,,,,,,,,,,,,,,2779096485
-0.07839057922363281,0.012072126770019532,9.829965171813965,-0.0011238406564846803,0.008173181408160554,-0.0025295635966116332,30.0,24597,,,,-0.06938476860523224,0.10288085788488388,9.979443550109863,-0.036751639097929,0.005858956836163998,-0.011451597325503826,39.49470520019531,,,,,,,,,,,,,,,,2779096485
-0.07951101608276367,0.012662532806396483,9.827891703796386,-0.0015581822535835265,0.007291288935046845,-0.0007136672461122132,30.0,24598,,,,-0.12202148139476776,0.11005859076976776,10.091894149780273,-0.03728426992893219,0.007456854451447725,-0.010120016522705555,39.68294143676758,,,,,,,,,,,,,,,,2779096485
-0.08144500427246093,0.010102287292480468,9.83002042541504,-0.0015574165947753907,0.007191007604889069,-0.0019812253898353577,30.0,24599,,,,-0.095703125,0.10048828274011612,10.142138481140137,-0.03781690448522568,0.003195794764906168,-0.007456854451447725,39.58882522583008,,,,,,,,,,,,,,,,2779096485
-0.08447539138793946,0.009789682006835937,9.834501425170899,-0.002124596666134491,0.007885513407089843,-0.003336028690269928,30.200000762939453,24600,15.75,-20.25,-70.3499984741211,-0.083740234375,0.12680664658546448,10.067968368530273,-0.03781690448522568,0.005858956836163998,-0.010918965563178062,39.49470520019531,,,,,,,,,,,,,,,,2779096485
-0.08436058502197265,0.008270544433593749,9.833147263336182,-0.0014867562736384583,0.008580698315363922,-0.0016172112187394715,30.30000114440918,24601,,,,-0.05742187425494194,0.08852539211511612,10.02490234375,-0.036751639097929,0.004793691914528608,-0.007456854451447725,39.49470520019531,,,,,,,,,,,,,,,,2779096485
-0.08152294998168945,0.009636295318603515,9.831930113983153,-0.0008750481491592407,0.008304714933495636,-0.0025240109057769774,30.30000114440918,24602,,,,-0.11484374850988388,0.15312500298023224,10.041650772094727,-0.03595269098877907,0.0050600082613527775,-0.012516862712800503,39.58882522583008,,,,,,,,,,,,,,,,2779096485
-0.0818010498046875,0.01013533477783203,9.82911113357544,-0.00043784365390823365,0.007860612851068725,-0.002071153681326599,30.30000114440918,24603,,,,-0.06938476860523224,0.12202148139476776,10.115819931030273,-0.037017956376075745,0.003994743339717388,-0.013582127168774605,39.58882522583008,,,,,,,,,,,,,,,,2779096485
-0.08309797668457031,0.0076603622436523435,9.83227868270874,-0.0009636848075306702,0.008755980919205628,-0.0021630327383029176,30.30000114440918,24604,15.75,-21.0,-70.6500015258789,-0.05742187425494194,0.16748046875,10.118212699890137,-0.03781690448522568,0.0050600082613527775,-0.010120016522705555,39.49470520019531,,,,,,,,,,,,,,,,2779096485
-0.08228707962036133,0.005153239440917968,9.834014498138428,-0.0006126135992436219,0.008035982007645263,-0.00252398427416626,30.30000114440918,24605,,,,-0.095703125,0.18422850966453552,10.101465225219727,-0.035686373710632324,0.005326324608176947,-0.009054751135408878,39.49470520019531,,,,,,,,,,,,,,,,2779096485
-0.08666415176391601,0.010578298187255858,9.837118830871582,-0.002619092413942108,0.008208814503300934,-0.0030610040463874815,30.30000114440918,24606,,,,-0.08852539211511612,0.09091796725988388,10.132568359375,-0.037017956376075745,0.005326324608176947,-0.010652649216353893,39.58882522583008,,,,,,,,,,,,,,,,2779096485
-0.08209092559814453,0.004588890075683594,9.830151755523682,-0.0015872972620007324,0.008015602167543488,-0.0017068199309020996,30.200000762939453,24607,,,,-0.059814453125,0.11723633110523224,10.070361137390137,-0.037017956376075745,0.003195794764906168,-0.011185280978679657,39.49470520019531,,,,,,,,,,,,,,,,2779096485
-0.08253732833862304,0.005774562072753906,9.831232266235352,-0.001504186662853241,0.0058515640859359746,-0.0010664761669985962,30.200000762939453,24608,16.5,-20.850000381469727,-70.3499984741211,-0.13637694716453552,0.1435546875,10.118212699890137,-0.037017956376075745,0.0037284272257238626,-0.008788435719907284,39.58882522583008,,,,,,,,,,,,,,,,2779096485
-0.08518759460449218,0.002052271270751953,9.827175575256348,-0.001073293859342346,0.007649044677624054,-0.000621461951904602,30.200000762939453,24609,,,,-0.083740234375,0.131591796875,10.051220893859863,-0.03595269098877907,0.006657905410975218,-0.009853700175881386,39.49470520019531,,,,,,,,,,,,,,,,2779096485
-0.08251560821533203,-0.00017308807373046873,9.825253699493407,0.00032564467795425414,0.0065683672042102055,-0.0013470401859103393,30.200000762939453,24610,,,,-0.03349609300494194,0.07895507663488388,10.099072456359863,-0.037550587207078934,0.0037284272257238626,-0.009853700175881386,39.49470520019531,,,,,,,,,,,,,,,,2779096485
-0.08425744247436523,0.0017499839782714843,9.82574518737793,0.00014836470330871582,0.0078090806843298345,-0.0030715102168156435,30.200000762939453,24611,,,,-0.12680664658546448,0.09809570014476776,10.036865234375,-0.03834953531622887,0.0055926404893398285,-0.012516862712800503,39.58882522583008,,,,,,,,,,,,,,,,2779096485
-0.08585886230468749,0.0009626014709472656,9.825952444458007,-0.00046305047345260623,0.008078992058954468,-0.002889203525647125,30.200000762939453,24612,16.049999237060547,-19.5,-71.69999694824219,-0.04545898362994194,0.13876953721046448,10.063183784484863,-0.037017956376075745,0.0055926404893398285,-0.010120016522705555,39.40058898925781,,,,,,,,,,,,,,,,2779096485
-0.08084835510253906,-0.0004947402954101562,9.828248497009277,-0.0012492089639385986,0.008354802335353089,-0.0019817913115631105,30.200000762939453,24613,,,,-0.03349609300494194,0.09809570014476776,10.127782821655273,-0.03488742560148239,0.0026631623040884733,-0.015446340665221214,39.49470520019531,,,,,,,,,,,,,,,,2779096485
-0.08493678512573243,0.0013439933776855468,9.820960704040527,-0.001510478380885315,0.008346213640896607,-0.0029770678673077394,30.200000762939453,24614,,,,-0.03110351599752903,0.095703125,10.058398246765137,-0.03808322176337242,0.006391589529812336,-0.009321067482233047,39.49470520019531,,,,,,,,,,,,,,,,2779096485
-0.08728308181762695,-0.0003405311584472656,9.825472732543945,-0.0012475578040740966,0.007645083225529785,-0.0010736600439897157,30.200000762939453,24615,,,,-0.083740234375,0.09091796725988388,10.178027153015137,-0.035686373710632324,0.003195794764906168,-0.012250546365976334,39.49470520019531,,,,,,,,,,,,,,,,2779096485
-0.0859295928955078,-0.0021755264282226562,9.826201048278808,-0.0010765096263365174,0.008644434417714234,0.00046182541935958863,30.200000762939453,24616,15.149999618530273,-19.950000762939453,-70.6500015258789,-0.12202148139476776,0.12202148139476776,10.089502334594727,-0.03595269098877907,0.006924221757799387,-0.009054751135408878,39.49470520019531,,,,,,,,,,,,,,,,2779096485
-0.0815510627746582,-0.002470112609863281,9.827673754882813,-0.000985755754913025,0.007811770477012329,-0.002614751461395111,30.200000762939453,24617,,,,-0.11723633110523224,0.11723633110523224,10.041650772094727,-0.035686373710632324,0.0021305298432707787,-0.011717913672327995,39.49470520019531,,,,,,,,,,,,,,,,2779096485
-0.08297595520019531,-0.001048883819580078,9.823674784851073,-0.0021192570281855774,0.007717214943158875,-0.0030633010228118896,30.200000762939453,24618,,,,-0.08134765923023224,0.09091796725988388,10.084716796875,-0.03621900454163551,0.006125273182988167,-0.011717913672327995,39.49470520019531,,,,,,,,,,,,,,,,2779096485
-0.08418091735839843,-0.0054233016967773435,9.829623556518554,-0.0010692791440266418,0.006383896694670868,-0.0017943713511367797,30.200000762939453,24619,,,,-0.06459961086511612,0.10288085788488388,10.091894149780273,-0.03621900454163551,0.006391589529812336,-0.013582127168774605,39.58882522583008,,,,,,,,,,,,,,,,2779096485
-0.08481510009765625,2.64678955078125e-05,9.822883738708496,-0.0008113453363223266,0.007812695925484772,-0.0025248031961958312,30.200000762939453,24620,15.600000381469727,-19.950000762939453,-70.5,-0.08852539211511612,0.08134765923023224,10.12060546875,-0.03595269098877907,0.0050600082613527775,-0.012516862712800503,39.49470520019531,,,,,,,,,,,,,,,,2779096485
-0.08258450698852539,0.0014821273803710937,9.830612139892578,-0.0012465191712561035,0.007201314038236847,-0.0005287240254826355,30.200000762939453,24621,,,,-0.12202148139476776,0.131591796875,10.106249809265137,-0.03781690448522568,0.0037284272257238626,-0.007989486679434776,39.58882522583008,,,,,,,,,,,,,,,,2779096485
-0.08107583694458008,0.002301398468017578,9.830201102447509,-0.0018684871237643432,0.006173753312399597,-0.0022450514414109803,30.200000762939453,24622,,,,-0.06699218600988388,0.11484374850988388,9.984228134155273,-0.03781690448522568,0.005326324608176947,-0.007723170332610607,39.58882522583008,,,,,,,,,,,,,,,,2779096485
-0.08374288864135741,0.0026611076354980468,9.82617166442871,-0.0009193897810043335,0.00616702217279068,-0.0010719023576823425,30.100000381469727,24623,,,,-0.10048828274011612,0.09091796725988388,10.0966796875,-0.035153742879629135,0.0037284272257238626,-0.012516862712800503,39.58882522583008,,,,,,,,,,,,,,,,2779096485
-0.08166343917846679,0.0016475143432617186,9.826516793823242,-0.0019702132188035583,0.007602133095344696,-0.0008921656169480896,30.100000381469727,24624,15.0,-20.700000762939453,-70.6500015258789,-0.11005859076976776,0.19140625,10.14453125,-0.03808322176337242,0.002929478418081999,-0.011717913672327995,39.49470520019531,,,,,,,,,,,,,,,,2779096485
-0.0839712303161621,0.003958969116210937,9.829630547332764,-0.0012026502505012512,0.008474771083733979,-0.0007181413567127991,30.100000381469727,24625,,,,-0.083740234375,0.12919922173023224,10.058398246765137,-0.03648532181978226,0.0021305298432707787,-0.012516862712800503,39.49470520019531,,,,,,,,,,,,,,,,2779096485
-0.08256342239379882,0.004544851684570313,9.826757285308837,-0.0013228520254759217,0.008040322960192262,-0.0024401279899186707,29.899999618530273,24626,,,,-0.095703125,0.09809570014476776,10.082324028015137,-0.03542005643248558,0.0034621108788996935,-0.008522119373083115,39.49470520019531,,,,,,,,,,,,,,,,2779096485
-0.08156781082153321,0.002368951416015625,9.829326577758788,-0.00018674751225570679,0.007236720764686126,-0.0021695641408314512,29.899999618530273,24627,,,,-0.09809570014476776,0.15312500298023224,10.161279678344727,-0.03728426992893219,0.006125273182988167,-0.012516862712800503,39.49470520019531,,,,,,,,,,,,,,,,2779096485
-0.0818117416381836,0.004721379089355469,9.835698611450194,-0.0005293565262371827,0.006879657443987579,-0.0029817417149887084,30.0,24628,16.5,-19.200000762939453,-70.80000305175781,-0.11484374850988388,0.16269531846046448,9.965087890625,-0.03648532181978226,0.0013315811520442367,-0.006391589529812336,39.49470520019531,,,,,,,,,,,,,,,,2779096485
-0.08179080657958984,0.009084058380126953,9.825551911926269,-0.0003129880049606323,0.0076896112786499025,-0.0013510549012260436,30.100000381469727,24629,,,,-0.07656250149011612,0.09331054985523224,10.091894149780273,-0.03542005643248558,0.0050600082613527775,-0.008522119373083115,39.49470520019531,,,,,,,,,,,,,,,,2779096485
-0.0803511848449707,0.010795574188232421,9.8307880317688,-0.00048600026398864745,0.0071529776647840885,-0.0011674366032296754,30.100000381469727,24630,,,,-0.05024414137005806,0.059814453125,10.154101371765137,-0.03728426992893219,0.004527375567704439,-0.009054751135408878,39.49470520019531,,,,,,,,,,,,,,,,2779096485
-0.08511929397583008,0.014025666809082031,9.826689657592773,-0.0013582787256332398,0.007405957992894898,-0.00297658184041214,30.100000381469727,24631,15.600000381469727,-20.25,-70.6500015258789,-0.07177734375,0.11962890625,10.044042587280273,-0.03781690448522568,0.004527375567704439,-0.009054751135408878,39.49470520019531,,,,,,,,,,,,,,,,2779096485
-0.08228397674560546,0.012025359344482421,9.829707334136963,-0.0007724432109663392,0.007362002519405213,-0.0030713171376379393,30.100000381469727,24632,,,,-0.083740234375,0.04545898362994194,10.127782821655273,-0.03861585259437561,0.006657905410975218,-0.010120016522705555,39.49470520019531,,,,,,,,,,,,,,,,2779096485
-0.08394936065673828,0.01041668701171875,9.829672118377685,9.849701223968506e-05,0.007474501100979767,-0.000448376455947113,30.100000381469727,24633,,,,-0.059814453125,0.17465820908546448,10.058398246765137,-0.03542005643248558,0.006391589529812336,-0.010652649216353893,39.58882522583008,,,,,,,,,,,,,,,,2779096485
