accelX,accelY,accelZ,gyroX,gyroY,gyroZ,temp,dataCNT,pad,magX,magY,magZ,pad
0.0,0.0,0.0,0.0,0.0,0.0,0.0,0,0,21.899999618530273,-15.300000190734863,-56.099998474121094,2779096485
0.5050205680847167,0.45574011306762696,11.107067635345459,-0.06742239664264404,-0.1158001090131395,-0.17783633562504333,18.5,1484,0,21.899999618530273,-15.300000190734863,-56.099998474121094,2779096485
0.6901415901184081,0.5183940704345703,9.942304415893554,-0.021900724784549408,-0.14316545389570098,-0.16992783248000137,18.700000762939453,1485,0,21.600000381469727,-14.850000381469727,-57.29999923706055,2779096485
0.6634226608276367,0.6963188529968262,10.097296411895751,-0.017901642224336396,-0.14685803990606583,-0.1636766277857318,18.799999237060547,1486,0,21.600000381469727,-14.850000381469727,-57.29999923706055,2779096485
0.8099811180114745,0.936491527557373,8.533462825012206,-0.050209035081503144,-0.14732060435262284,-0.16148038542886384,18.799999237060547,1487,0,21.600000381469727,-14.850000381469727,-57.29999923706055,2779096485
0.49073665237426756,0.6431167381286621,10.744687602996827,-0.08662788923820923,-0.15127501238585678,-0.15455100676766617,18.799999237060547,1488,0,21.600000381469727,-14.850000381469727,-57.29999923706055,2779096485
0.7615595237731934,0.9482876853942871,9.540367777252197,-0.06269367452779083,-0.16880931814566025,-0.14316809042516204,18.600000381469727,1489,0,21.0,-14.850000381469727,-56.70000076293945,2779096485
0.6890780891418457,1.0358806434631347,9.799152840423584,-0.06123042730851349,-0.19248765634030227,-0.1417319874751088,18.600000381469727,1490,0,21.0,-14.850000381469727,-56.70000076293945,2779096485
0.7343432746887206,1.0779599243164062,10.099471676635742,-0.05468478352614822,-0.1952607793327333,-0.1393013869439244,18.600000381469727,1491,0,21.0,-14.850000381469727,-56.70000076293945,2779096485
0.7569342590332031,1.2007017242431641,9.61495240020752,-0.06523337811018326,-0.2066127763751941,-0.14013150756580275,18.5,1492,0,21.0,-14.850000381469727,-56.70000076293945,2779096485
0.8468541862487793,1.3175484733581542,9.690698918914794,-0.07783095555962234,-0.2287326992896588,-0.14381254877292146,18.5,1493,0,21.75,-15.149999618530273,-56.849998474121094,2779096485
0.7191273376464844,1.3546438270568848,9.643702927398682,-0.09098191790606873,-0.2377899369893039,-0.1532408646784053,18.600000381469727,1494,0,21.75,-15.149999618530273,-56.849998474121094,2779096485
0.8633136657714844,1.5237118087768555,9.3712497756958,-0.1108992401666066,-0.2563897734939255,-0.16867678593492325,18.600000381469727,1495,0,21.75,-15.149999618530273,-56.849998474121094,2779096485
0.7707376777648925,1.399593977355957,10.208504975891113,-0.13468132180079972,-0.27379586136392825,-0.1868212551857843,18.600000381469727,1496,0,20.399999618530273,-15.300000190734863,-56.54999923706055,2779096485
1.0063771644592285,1.3091182991027832,12.158417118835448,-0.11870477884671098,-0.26966394032945495,-0.20970633090778137,18.600000381469727,1497,0,20.399999618530273,-15.300000190734863,-56.54999923706055,2779096485
0.43681265182495116,1.89068316116333,9.963085788726806,-0.10107093078394715,-0.2751931886887764,-0.22369280677727646,18.5,1498,0,20.399999618530273,-15.300000190734863,-56.54999923706055,2779096485
1.0199681671142578,1.6010788505554199,8.243837990570068,-0.09049633708994888,-0.3056540388694102,-0.2509644017322087,18.5,1499,0,20.399999618530273,-15.300000190734863,-56.54999923706055,2779096485
0.23299090270996092,1.811617650604248,11.492145719909667,-0.10596903660086808,-0.3267243234527527,-0.2789932731958035,18.5,1500,0,21.149999618530273,-15.600000381469727,-56.849998474121094,2779096485
0.709442667388916,1.842306689453125,9.22196071395874,-0.12681793926221635,-0.3455956625707393,-0.3001267945387953,18.700000762939453,1501,0,21.149999618530273,-15.600000381469727,-56.849998474121094,2779096485
0.07919067230224609,1.9898696182250977,9.715894000244141,-0.14782623877161316,-0.3446376902437076,-0.3184334769305383,18.799999237060547,1502,0,21.149999618530273,-15.600000381469727,-56.849998474121094,2779096485
0.5412720893859864,1.6827710006713867,9.211311124420165,-0.1968601673459999,-0.3559704792369382,-0.33705474522388507,18.799999237060547,1503,0,21.149999618530273,-15.600000381469727,-56.849998474121094,2779096485
-0.0839269302368164,1.8141788681030273,11.291221046447754,-0.23009886097206453,-0.3458785834871996,-0.34304299605183,18.700000762939453,1504,0,20.700000762939453,-14.850000381469727,-56.099998474121094,2779096485
0.09416503372192382,1.7249052360534667,9.297612052917481,-0.2670265719726578,-0.3338333256703391,-0.34784949578578445,18.5,1505,0,20.700000762939453,-14.850000381469727,-56.099998474121094,2779096485
0.08725123062133788,1.7756441917419432,9.883848461151123,-0.29626654922315676,-0.33723507451795776,-0.354073429710679,18.5,1506,0,20.700000762939453,-14.850000381469727,-56.099998474121094,2779096485
-0.033707276153564454,1.5232740417480468,10.423610160827636,-0.33513380714281205,-0.3330039107861447,-0.3585705300492171,18.5,1507,0,20.700000762939453,-14.850000381469727,-56.099998474121094,2779096485
-0.09548719482421875,1.6258002388000488,9.11771971130371,-0.35243179730491137,-0.3293732033232826,-0.3623256603973526,18.5,1508,0,20.700000762939453,-14.550000190734863,-56.70000076293945,2779096485
-0.016975790405273437,1.3204710075378419,10.052987771606444,-0.3764907145325157,-0.3431781781078334,-0.3683500037157228,18.5,1509,0,20.700000762939453,-14.550000190734863,-56.70000076293945,2779096485
-0.2409040184020996,1.3546412101745604,10.388317353057861,-0.3844328534018942,-0.3423880847968639,-0.37058817088576324,18.600000381469727,1510,0,20.700000762939453,-14.550000190734863,-56.70000076293945,2779096485
-0.014222194671630859,1.2645263999938965,9.957103595733642,-0.37541368558977023,-0.34378570506942996,-0.37142787222959733,18.600000381469727,1511,0,20.700000762939453,-14.550000190734863,-56.70000076293945,2779096485
0.09105991592407227,1.1492183403015137,10.248767317962646,-0.38695558599035673,-0.3689397673929706,-0.3732006786339554,18.600000381469727,1512,0,21.0,-13.800000190734863,-56.70000076293945,2779096485
0.00012886276245117187,1.2247094886779786,10.131399098968506,-0.3809982278308444,-0.37542552999863693,-0.3768200410306517,18.600000381469727,1513,0,21.0,-13.800000190734863,-56.70000076293945,2779096485
-0.06116442794799804,1.1560520294189454,10.142311386108398,-0.3705247743364496,-0.3738792054697255,-0.37559436775268495,18.600000381469727,1514,0,21.0,-13.800000190734863,-56.70000076293945,2779096485
0.07589463424682617,0.9394317817687988,10.837994523620605,-0.3700889080796371,-0.3762630675241002,-0.36988414428273086,18.600000381469727,1515,0,21.0,-13.800000190734863,-56.70000076293945,2779096485
0.10609465255737305,0.8557051177978515,10.931373445892334,-0.36513790522592804,-0.37567963551230055,-0.36076085353060305,18.600000381469727,1516,0,20.700000762939453,-14.399999618530273,-56.54999923706055,2779096485
0.05432064514160156,0.8472563636779785,10.882840559387207,-0.35165166421635025,-0.36013360586126997,-0.3491832001926279,18.600000381469727,1517,0,20.700000762939453,-14.399999618530273,-56.54999923706055,2779096485
0.15378550109863282,0.7440488800048828,11.091421295928955,-0.343152265550605,-0.3415192950762233,-0.334973444898875,18.600000381469727,1518,0,20.700000762939453,-14.399999618530273,-56.54999923706055,2779096485
0.27982588119506835,0.6694904258728027,11.421224732208252,-0.33901563737893736,-0.3238202461725197,-0.32237496197467147,18.600000381469727,1519,0,20.700000762939453,-14.399999618530273,-56.54999923706055,2779096485
0.3467671516418457,0.6433641456604003,11.370526749420165,-0.3321748687445004,-0.2993723276650635,-0.311166416103342,18.700000762939453,1520,0,20.25,-13.5,-57.0,2779096485
0.38757343139648437,0.6390950759887695,11.390511692810058,-0.32273616651083664,-0.26909871102358096,-0.3000782784019702,18.700000762939453,1521,0,20.25,-13.5,-57.0,2779096485
0.4728738510131836,0.5585648963928223,11.611716045379639,-0.3182763371114981,-0.24173258050850327,-0.2905025432153581,18.700000762939453,1522,0,20.25,-13.5,-57.0,2779096485
0.4898557350158691,0.5239897872924805,11.647747673797607,-0.3131235265696724,-0.21625847280316177,-0.2797464151469022,18.700000762939453,1523,0,20.25,-13.5,-57.0,2779096485
0.47202770080566403,0.5105020393371582,11.587869929504395,-0.3072092184088853,-0.18355026754678985,-0.2721875051557524,18.600000381469727,1524,0,20.700000762939453,-13.949999809265137,-56.70000076293945,2779096485
0.4716808891296387,0.4830034660339355,11.605591194915771,-0.30249254043997925,-0.15241184261046906,-0.26334979182325396,18.600000381469727,1525,0,20.700000762939453,-13.949999809265137,-56.70000076293945,2779096485
0.4643982925415039,0.42630201873779294,11.702190041351319,-0.2987199264394075,-0.12194183781365098,-0.251698608608087,18.600000381469727,1526,0,20.700000762939453,-13.949999809265137,-56.70000076293945,2779096485
0.39625957412719726,0.3923053153991699,11.653722203063964,-0.2954181992637421,-0.08691867313773392,-0.23852429699694383,18.600000381469727,1527,0,20.700000762939453,-13.949999809265137,-56.70000076293945,2779096485
0.3075520484924316,0.36410485687255856,11.606233078765868,-0.291779848528604,-0.048253316116832735,-0.219116976739554,18.600000381469727,1528,0,20.25,-13.949999809265137,-57.599998474121094,2779096485
0.25671451110839844,0.2940752540588379,11.632027276611328,-0.2856923683191246,-0.010855577160778809,-0.2013433593258406,18.600000381469727,1529,0,20.25,-13.949999809265137,-57.599998474121094,2779096485
0.2249514289855957,0.24525503387451172,11.650056922912597,-0.28511910958261916,0.030188541961044618,-0.1761394426270363,18.600000381469727,1530,0,20.25,-13.949999809265137,-57.599998474121094,2779096485
0.18219860000610352,0.21765066375732423,11.581179271697998,-0.2793942054372569,0.07157918494362503,-0.15303696640884734,18.600000381469727,1531,0,20.100000381469727,-13.050000190734863,-57.599998474121094,2779096485
0.13034440383911133,0.1996917854309082,11.516780863189696,-0.2734117736162538,0.11458310432446137,-0.13021266402250825,18.600000381469727,1532,0,20.100000381469727,-13.050000190734863,-57.599998474121094,2779096485
0.08835495681762695,0.18160423126220704,11.501867475128174,-0.2645694663309065,0.1555985278857364,-0.10413419851724563,18.5,1533,0,20.100000381469727,-13.050000190734863,-57.599998474121094,2779096485
0.04291986083984375,0.1885554183959961,11.413623960113526,-0.25526199801695726,0.1960968521196071,-0.08085998835734313,18.5,1534,0,20.100000381469727,-13.050000190734863,-57.599998474121094,2779096485
0.022149852752685547,0.20231692962646483,11.315849236297607,-0.24472478178860138,0.2358849911904669,-0.05785871891778442,18.5,1535,0,20.399999618530273,-13.5,-57.599998474121094,2779096485
0.028997859954833984,0.2122158477783203,11.23874276123047,-0.23458195308336502,0.27375545455256667,-0.03547999666826706,18.600000381469727,1536,0,20.399999618530273,-13.5,-57.599998474121094,2779096485
0.032863854980468746,0.21907275238037108,11.179344130706786,-0.22263323485535644,0.3087683194530386,-0.014911318472793884,18.600000381469727,1537,0,20.399999618530273,-13.5,-57.599998474121094,2779096485
0.018336756134033204,0.2233604393005371,11.090679297637939,-0.21365810906945695,0.34409794738929045,0.00204470849188385,18.600000381469727,1538,0,20.399999618530273,-13.5,-57.599998474121094,2779096485
-0.017209664916992187,0.2447416015625,10.990196287536621,-0.20451311355459412,0.3806246795431116,0.02261738808686737,18.600000381469727,1539,0,20.700000762939453,-13.199999809265137,-57.29999923706055,2779096485
-0.03427607421875,0.2531277000427246,10.916122816467285,-0.19553239513044388,0.41347194841274904,0.043203549934776764,18.600000381469727,1540,0,20.700000762939453,-13.199999809265137,-57.29999923706055,2779096485
-0.01937509765625,0.28626154251098634,10.830083763122559,-0.19039086973365982,0.44608826795424195,0.05810010783733032,18.600000381469727,1541,0,20.700000762939453,-13.199999809265137,-57.29999923706055,2779096485
-0.005977295684814453,0.33751916427612305,10.724427812194824,-0.18288948402166047,0.47756149218470123,0.07552748768010192,18.600000381469727,1542,0,20.700000762939453,-13.199999809265137,-57.29999923706055,2779096485
0.006919111633300781,0.3902022018432617,10.621099540710448,-0.1769538705722992,0.507135037017343,0.09133733006690277,18.600000381469727,1543,0,19.799999237060547,-13.050000190734863,-57.150001525878906,2779096485
0.01779457550048828,0.4386159828186035,10.544166714477539,-0.17319409966599608,0.5342774553444887,0.1064389780035939,18.600000381469727,1544,0,19.799999237060547,-13.050000190734863,-57.150001525878906,2779096485
0.02200872802734375,0.4710710807800293,10.469828489685058,-0.16742336251858855,0.5605221620217543,0.12126518850643646,18.600000381469727,1545,0,19.799999237060547,-13.050000190734863,-57.150001525878906,2779096485
0.05081772384643554,0.49728154983520506,10.389185821533204,-0.1626332212515175,0.5848258836729792,0.13474128287233078,18.600000381469727,1546,0,19.799999237060547,-13.050000190734863,-57.150001525878906,2779096485
0.11754710159301758,0.5088849182128906,10.324160594940185,-0.1554591247194342,0.6088300463089478,0.14975154443684388,18.600000381469727,1547,0,20.25,-12.75,-57.150001525878906,2779096485
0.2003462677001953,0.5014490844726562,10.274044606781006,-0.1487034906865593,0.6265429636239327,0.16369892510180528,18.600000381469727,1548,0,20.25,-12.75,-57.150001525878906,2779096485
0.27173115386962887,0.49386483612060544,10.192964433288575,-0.1406375614326619,0.6447538987172425,0.17266052202946014,18.600000381469727,1549,0,20.25,-12.75,-57.150001525878906,2779096485
0.33102709045410156,0.49637136077880856,10.106122183990479,-0.13264364405414536,0.6575773721466925,0.18127915707429154,18.600000381469727,1550,0,20.25,-12.75,-57.150001525878906,2779096485
0.39225421142578126,0.503632536315918,10.033656002044678,-0.12376254782778763,0.665802272142867,0.18719477018400377,18.600000381469727,1551,0,20.549999237060547,-13.050000190734863,-57.29999923706055,2779096485
0.4529094688415527,0.523989525604248,9.956877721405029,-0.11279418579561905,0.6700286954479723,0.19103291792064928,18.600000381469727,1552,0,20.549999237060547,-13.050000190734863,-57.29999923706055,2779096485
0.5167988563537598,0.5628262649536132,9.85853752670288,-0.10546850879323288,0.6714629874484968,0.19100193869948182,18.5,1553,0,20.549999237060547,-13.050000190734863,-57.29999923706055,2779096485
0.5642975883483886,0.6097574325561523,9.762158685302735,-0.09988082402209396,0.6714835670256789,0.19279316086265122,18.5,1554,0,20.549999237060547,-13.050000190734863,-57.29999923706055,2779096485
0.6198244667053222,0.6851461860656738,9.588157955169677,-0.09518533815741653,0.6648666304214221,0.18574255510946625,18.700000762939453,1555,0,20.850000381469727,-12.899999618530273,-56.70000076293945,2779096485
0.6472105514526367,0.7323423316955566,9.479915029144287,-0.09874549182558456,0.6600877609835873,0.18242235225386536,18.700000762939453,1556,0,20.850000381469727,-12.899999618530273,-56.70000076293945,2779096485
0.6840890029907226,0.7609748001098633,9.387790677642823,-0.10352299639337005,0.6518751914231752,0.17748832039408616,18.700000762939453,1557,0,20.850000381469727,-12.899999618530273,-56.70000076293945,2779096485
0.723883521270752,0.7841714431762695,9.287062390899658,-0.10809320050332841,0.6415364206420828,0.17057156511636873,18.799999237060547,1558,0,21.299999237060547,-11.850000381469727,-56.54999923706055,2779096485
0.7513224670410156,0.8047989059448242,9.208403917694092,-0.11792190936014862,0.6291576351904956,0.16168613459536668,18.799999237060547,1559,0,21.299999237060547,-11.850000381469727,-56.54999923706055,2779096485
0.7663600822448731,0.8177501930236816,9.13154298095703,-0.1282697814942038,0.6154125615563518,0.15045336727408937,18.799999237060547,1560,0,21.299999237060547,-11.850000381469727,-56.54999923706055,2779096485
0.7709753280639648,0.8246826881408691,9.060982038879395,-0.1369107338288167,0.5992485054311992,0.13822309965757248,18.700000762939453,1561,0,21.299999237060547,-11.850000381469727,-56.54999923706055,2779096485
0.7512659049987793,0.8374610366821289,8.997289627838134,-0.14944809720642288,0.5767463323501996,0.127297521308022,18.5,1562,0,22.200000762939453,-12.0,-56.54999923706055,2779096485
0.7264365516662598,0.8490669097900391,8.949106992340088,-0.15558491913265962,0.5565106624730441,0.11208936024426513,18.5,1563,0,22.200000762939453,-12.0,-56.54999923706055,2779096485
0.6996228538513183,0.8638750617980957,8.910219709777833,-0.16398038127967607,0.5316366781415196,0.10052677374005356,18.5,1564,0,22.200000762939453,-12.0,-56.54999923706055,2779096485
0.6697440391540527,0.8789195182800292,8.876036534881592,-0.1687122925299127,0.5082827196233227,0.0878596811287384,18.5,1565,0,22.200000762939453,-12.0,-56.54999923706055,2779096485
0.6573821113586426,0.8829366195678711,8.856629174804688,-0.17220504159135408,0.47866867476868197,0.07765473419150284,18.5,1566,0,22.049999237060547,-12.0,-56.54999923706055,2779096485
0.6554832641601562,0.8753620162963867,8.846246245574951,-0.17648972820280717,0.4530970687365027,0.06698612425376815,18.5,1567,0,22.049999237060547,-12.0,-56.54999923706055,2779096485
0.6616232551574707,0.8670987991333008,8.84908791809082,-0.17751850732483476,0.4238040146858432,0.058493509990853274,18.5,1568,0,22.049999237060547,-12.0,-56.54999923706055,2779096485
0.6757591674804687,0.8533212875366211,8.836637128448485,-0.1763016025046968,0.39599999391153856,0.0495333378543718,18.5,1569,0,22.049999237060547,-12.0,-56.54999923706055,2779096485
0.6861584335327148,0.8491750617980957,8.83563475036621,-0.17298150617553879,0.3654221577229242,0.04129987579535156,18.5,1570,0,22.5,-12.600000381469727,-55.79999923706055,2779096485
0.6904925514221191,0.8369693618774414,8.835371604156494,-0.17210249657428528,0.33324106527958647,0.034800704173688815,18.5,1571,0,22.5,-12.600000381469727,-55.79999923706055,2779096485
0.6690331069946289,0.8258024894714355,8.841420153808594,-0.1681636480596132,0.30014203447802856,0.02548752337924057,18.5,1572,0,22.5,-12.600000381469727,-55.79999923706055,2779096485
0.6468334213256836,0.8232148788452148,8.852366011810302,-0.16570997123774187,0.2669723034079176,0.018624211086331024,18.5,1573,0,22.5,-12.600000381469727,-55.79999923706055,2779096485
0.6102368827819824,0.8301128684997559,8.873740631866454,-0.1669057239010672,0.2364600475606958,0.013396132954714203,18.600000381469727,1574,0,21.899999618530273,-13.350000381469727,-56.25,2779096485
0.5675306343078613,0.8412016830444335,8.897331115722656,-0.16865663912141526,0.2077869041706166,0.008161290393975068,18.600000381469727,1575,0,21.899999618530273,-13.350000381469727,-56.25,2779096485
0.5365425605773926,0.8522161033630371,8.922020615386963,-0.17259291768565307,0.17992157077053697,0.0032028107155569457,18.600000381469727,1576,0,21.899999618530273,-13.350000381469727,-56.25,2779096485
0.5164597457885742,0.8609818740844726,8.949985218048095,-0.17474961875850784,0.1569908218361589,-0.0011413309668235779,18.799999237060547,1577,0,21.899999618530273,-13.350000381469727,-56.25,2779096485
0.5154781158447266,0.88217320022583,8.980030840301513,-0.1817220141289174,0.1330472527724759,-0.004742257631000519,18.899999618530273,1578,0,22.950000762939453,-12.300000190734863,-56.849998474121094,2779096485
0.5221559135437012,0.8954293167114258,9.00683724822998,-0.18724741422049013,0.11128808165679413,-0.009082910572377013,18.899999618530273,1579,0,22.950000762939453,-12.300000190734863,-56.849998474121094,2779096485
0.5363719398498535,0.9167089065551758,9.041732402038575,-0.19148470322276825,0.08837589495508637,-0.01722878792164917,18.799999237060547,1580,0,22.950000762939453,-12.300000190734863,-56.849998474121094,2779096485
0.556728630065918,0.9386962509155273,9.069366268157959,-0.19528790362824935,0.06652711512724198,-0.027009573194982758,18.700000762939453,1581,0,22.950000762939453,-12.300000190734863,-56.849998474121094,2779096485
0.5683324470520019,0.9553593612670899,9.093565962219238,-0.19871044510593597,0.04309924723140061,-0.03796079778565445,18.700000762939453,1582,0,22.350000381469727,-11.550000190734863,-55.95000076293945,2779096485
0.5722874908447265,0.9700316223144531,9.126862574768067,-0.20012214684266907,0.023071530286534882,-0.0525514516916983,18.799999237060547,1583,0,22.350000381469727,-11.550000190734863,-55.95000076293945,2779096485
0.5551480331420898,0.9797093391418457,9.169748864746094,-0.2015281360989032,0.0027914455406048582,-0.06623542575295288,18.799999237060547,1584,0,22.350000381469727,-11.550000190734863,-55.95000076293945,2779096485
0.5260500213623047,0.9790885772705078,9.21402939224243,-0.20249921117840805,-0.014977418130595398,-0.08119689154872833,18.799999237060547,1585,0,22.350000381469727,-11.550000190734863,-55.95000076293945,2779096485
0.47804615631103514,0.9673926834106445,9.270207537841797,-0.20392293042947754,-0.029488823021045836,-0.09182293085673066,18.799999237060547,1586,0,22.799999237060547,-12.0,-55.95000076293945,2779096485
0.436116934967041,0.951321474456787,9.33497268371582,-0.20558171359254745,-0.04138497710740021,-0.10074150441727096,18.600000381469727,1587,0,22.799999237060547,-12.0,-55.95000076293945,2779096485
0.40400947113037106,0.9188096275329589,9.401031504058837,-0.20407359210921067,-0.04922638856714142,-0.10497440586168336,18.600000381469727,1588,0,22.799999237060547,-12.0,-55.95000076293945,2779096485
0.3688219741821289,0.8814314636230468,9.482994464111329,-0.19960472127803344,-0.052301960104591524,-0.10950550810920533,18.700000762939453,1589,0,22.200000762939453,-11.699999809265137,-55.95000076293945,2779096485
0.36095218658447265,0.8427146522521972,9.563539335632324,-0.19224377736515427,-0.054482869311588744,-0.10725829284942352,18.700000762939453,1590,0,22.200000762939453,-11.699999809265137,-55.95000076293945,2779096485
0.36827500839233396,0.8096654846191406,9.639597824096679,-0.18186473958865662,-0.05067954240595673,-0.10441056805746933,18.700000762939453,1591,0,22.200000762939453,-11.699999809265137,-55.95000076293945,2779096485
0.38372706298828124,0.7788319190979004,9.694429396820068,-0.16938547306983123,-0.04298582320135361,-0.10131089491231965,18.700000762939453,1592,0,22.200000762939453,-11.699999809265137,-55.95000076293945,2779096485
0.4055181785583496,0.7643297554016113,9.729917610931397,-0.15397038439079727,-0.03471425130739624,-0.09804498725306961,18.600000381469727,1593,0,21.149999618530273,-12.0,-56.25,2779096485
0.43817806625366207,0.7586411018371582,9.754017713928222,-0.1333895555229341,-0.02578595720894394,-0.09525071210382599,18.600000381469727,1594,0,21.149999618530273,-12.0,-56.25,2779096485
0.4472080299377441,0.7631086433410644,9.749626884460449,-0.11220616648887329,-0.017249533946398315,-0.09426877798505097,18.600000381469727,1595,0,21.149999618530273,-12.0,-56.25,2779096485
0.44076993865966796,0.7781205383300781,9.720689138031005,-0.08905541381835572,-0.012237691178004455,-0.09627342587651261,18.600000381469727,1596,0,21.149999618530273,-12.0,-56.25,2779096485
0.3853472496032715,0.7912702598571777,9.678656400299072,-0.06846276717323654,-0.008651684873732147,-0.09807820352953736,18.5,1597,0,22.5,-11.25,-56.70000076293945,2779096485
0.3050737487792969,0.7948647346496581,9.606467308807373,-0.04620418677756973,-0.005682380120948639,-0.09979564281521316,18.5,1598,0,22.5,-11.25,-56.70000076293945,2779096485
0.18997500228881836,0.7890399284362792,9.541110635375976,-0.026801566999471588,-0.006195957417835541,-0.10239498123190537,18.600000381469727,1599,0,22.5,-11.25,-56.70000076293945,2779096485
-0.47489886932373043,0.9326407478332519,10.515953022003174,0.00456272062734665,-0.009837557209481202,-0.09307458992885528,18.600000381469727,1600,0,22.5,-11.25,-56.70000076293945,2779096485
-0.6823539726257324,1.243756354522705,11.067784792327881,0.10107472578847443,0.007681095821122894,-0.05943002389754913,18.600000381469727,1601,0,21.75,-11.25,-56.400001525878906,2779096485
-0.19951267852783203,1.2339941123962401,11.361569348144531,0.2229544720017369,0.0386308890587297,-0.04095064216820404,18.600000381469727,1602,0,21.75,-11.25,-56.400001525878906,2779096485
0.2378452568054199,1.162204058074951,11.40772135772705,0.3478884112269458,0.07112500279654144,-0.040957080360095065,18.5,1603,0,21.75,-11.25,-56.400001525878906,2779096485
0.36043744583129883,1.2043514152526855,11.09192145690918,0.47441825638231994,0.09850815091086777,-0.05244873356915985,18.5,1604,0,21.75,-11.25,-56.400001525878906,2779096485
0.2693816421508789,1.2256255096435547,10.812698168945312,0.5844666964813259,0.11936453705482773,-0.06014776578010116,18.600000381469727,1605,0,22.350000381469727,-11.399999618530273,-55.95000076293945,2779096485
0.27846469116210937,1.0408309997558594,10.383584609222412,0.6811541640096677,0.1397681059217534,-0.06480305122840012,18.799999237060547,1606,0,22.350000381469727,-11.399999618530273,-55.95000076293945,2779096485
0.25253714447021486,0.9338033164978027,9.888788985443115,0.7392781271122985,0.15170241644836366,-0.06223992514438141,18.799999237060547,1607,0,22.350000381469727,-11.399999618530273,-55.95000076293945,2779096485
0.11643346862792968,1.0696739776611328,9.45095436630249,0.7703216503038265,0.16653856719990662,-0.0624904487064035,18.799999237060547,1608,0,22.350000381469727,-11.399999618530273,-55.95000076293945,2779096485
0.03804027252197265,1.257103987121582,9.295229194641113,0.7862275928579023,0.17683009350358567,-0.05805914176214371,18.700000762939453,1609,0,21.75,-11.550000190734863,-56.099998474121094,2779096485
0.07501528701782226,1.3723025489807128,9.306502125549317,0.7932813744306655,0.1823619983660762,-0.06163445547471283,18.600000381469727,1610,0,21.75,-11.550000190734863,-56.099998474121094,2779096485
0.1777241424560547,1.4845927825927734,9.27040249557495,0.8013011178136755,0.1879747900882193,-0.06747634562805557,18.600000381469727,1611,0,21.75,-11.550000190734863,-56.099998474121094,2779096485
0.3035741630554199,1.5224228446960448,9.205089038085937,0.8041636697548968,0.19673736898898025,-0.08236496731061524,18.600000381469727,1612,0,21.75,-11.550000190734863,-56.099998474121094,2779096485
0.43958026657104493,1.5412789398193358,9.022529981231688,0.8069656281238325,0.19818736698192552,-0.11316202826075561,18.600000381469727,1613,0,22.5,-12.149999618530273,-56.25,2779096485
0.4753227668762207,1.5478578567504881,8.919935446166992,0.7943153533746857,0.19598716983086595,-0.1375554784663913,18.600000381469727,1614,0,22.5,-12.149999618530273,-56.25,2779096485
0.48773777999877926,1.5525147857666015,8.854650512695311,0.7759908943827886,0.1933274708684819,-0.16256134253419022,18.5,1615,0,22.5,-12.149999618530273,-56.25,2779096485
0.4611017311096191,1.5642632415771485,8.745731421661377,0.7465151940879239,0.1900703316670607,-0.18797685403804992,18.5,1616,0,21.899999618530273,-12.899999618530273,-56.25,2779096485
0.42327750091552735,1.5535660247802734,8.658337795257568,0.7135451668086829,0.18555901004839936,-0.21165604444423491,18.5,1617,0,21.899999618530273,-12.899999618530273,-56.25,2779096485
0.3914750160217285,1.5086924743652343,8.646128057861327,0.6766058111363032,0.17923876956124665,-0.23540197366687868,18.799999237060547,1618,0,21.899999618530273,-12.899999618530273,-56.25,2779096485
0.34283334197998044,1.4801530921936035,8.659595132446288,0.6401646530056211,0.16692223549971222,-0.25831755589895294,18.799999237060547,1619,0,21.899999618530273,-12.899999618530273,-56.25,2779096485
0.3010259552001953,1.4086643905639649,8.63638805923462,0.6057296607682113,0.15010995931178633,-0.27932431077492814,18.799999237060547,1620,0,22.350000381469727,-12.600000381469727,-56.849998474121094,2779096485
0.3098734474182129,1.1834791992187499,8.14888056488037,0.5699450384207491,0.1349774852856894,-0.2957177715948036,18.700000762939453,1621,0,22.350000381469727,-12.600000381469727,-56.849998474121094,2779096485
0.37208862838745116,0.9388565536499023,7.915442025756835,0.49311613716179903,0.09680310198207841,-0.30889832831866015,18.600000381469727,1622,0,22.350000381469727,-12.600000381469727,-56.849998474121094,2779096485
0.23712060470581053,1.0412583366394044,8.47952435684204,0.4387644884541194,0.08123432893549484,-0.31834211053206835,18.600000381469727,1623,0,22.350000381469727,-12.600000381469727,-56.849998474121094,2779096485
0.1339078872680664,0.9559047569274902,8.229459156799317,0.4080642733563542,0.06948022786070908,-0.3251654154877771,18.600000381469727,1624,0,22.799999237060547,-12.899999618530273,-55.95000076293945,2779096485
0.24545844039916992,0.8206677925109863,9.332760932159424,0.3571501930127087,0.036268998083197175,-0.32740807008422346,18.600000381469727,1625,0,22.799999237060547,-12.899999618530273,-55.95000076293945,2779096485
-0.04903936538696289,1.1149636871337891,9.239373448944091,0.3786738408211052,0.048641218842742466,-0.3292473290152251,18.600000381469727,1626,0,22.799999237060547,-12.899999618530273,-55.95000076293945,2779096485
-0.0942725128173828,0.695151798248291,9.507285375213623,0.39285715092541534,0.039919652622486874,-0.3254622580787401,18.700000762939453,1627,0,22.799999237060547,-12.899999618530273,-55.95000076293945,2779096485
-0.10003739242553711,0.5836666671752929,9.405084344482422,0.407656503448849,0.032502769011295014,-0.31815218054233185,18.799999237060547,1628,0,22.649999618530273,-12.600000381469727,-56.400001525878906,2779096485
-0.22148858337402344,0.48175248413085936,9.206945267486573,0.41102608796862333,0.029156766782811278,-0.3022210711161276,18.799999237060547,1629,0,22.649999618530273,-12.600000381469727,-56.400001525878906,2779096485
-0.45206025314331055,0.8192423393249512,7.563835398864746,0.39408327694076434,0.026470522762444305,-0.2876674218331761,18.799999237060547,1630,0,22.649999618530273,-12.600000381469727,-56.400001525878906,2779096485
-0.048379051208496095,0.31947908782958984,10.75316005859375,0.35178445608529174,0.02238404191375824,-0.27854680090002276,18.600000381469727,1631,0,22.649999618530273,-12.600000381469727,-56.400001525878906,2779096485
-0.2737303771972656,0.9004169822692871,9.472986459350585,0.37697801974542955,0.03585915756795868,-0.2691754167203508,18.600000381469727,1632,0,23.25,-13.800000190734863,-55.5,2779096485
-0.5649331169128418,0.674619440460205,9.196041952514648,0.397611452702363,0.05624202035755127,-0.25954082567405246,18.600000381469727,1633,0,23.25,-13.800000190734863,-55.5,2779096485
-0.12737910232543945,0.7850086212158203,7.188383403778076,0.3816379657256041,0.05382405652565247,-0.2570323476552266,18.600000381469727,1634,0,23.25,-13.800000190734863,-55.5,2779096485
0.7061077873229981,-0.002369960784912109,6.827718849945068,0.18442823851522538,-0.01926991446189148,-0.2624269266170509,18.600000381469727,1635,0,23.25,-13.800000190734863,-55.5,2779096485
0.47937306518554684,-0.0004745903015136719,5.825228129577637,-0.002257481745713501,-0.04367463649676346,-0.27499991643189486,18.600000381469727,1636,0,21.75,-13.5,-55.650001525878906,2779096485
0.059784059906005854,-0.5745884407043457,7.641584281158447,-0.8437463126595557,-0.2686820528159987,-0.23027270546892747,18.5,1641,0,22.5,-13.5,-55.650001525878906,2779096485
-0.15062139129638671,-0.8084752517700196,8.554838529205322,-0.9433443755548537,-0.31177901638678024,-0.21130544594703812,18.5,1642,0,22.5,-13.5,-55.650001525878906,2779096485
-0.2878769813537598,-0.7610485961914062,8.653201789855956,-1.004771763598333,-0.32704482822983844,-0.18595897023606156,18.600000381469727,1643,0,22.5,-13.5,-55.650001525878906,2779096485
-0.28680854568481445,-1.0409247215270996,9.753730641937256,-1.0353635946983797,-0.34536143755447646,-0.15464257956111924,18.600000381469727,1644,0,21.899999618530273,-13.350000381469727,-55.79999923706055,2779096485
-0.10367052230834961,-0.9506297950744629,10.460870415496826,-1.0472923525341553,-0.36137155631177764,-0.12539228921936982,18.600000381469727,1645,0,21.899999618530273,-13.350000381469727,-55.79999923706055,2779096485
-0.13405099334716797,-1.1110318214416504,11.093935746002197,-1.0261653159883732,-0.36490584402803605,-0.08914835148185807,18.600000381469727,1646,0,21.899999618530273,-13.350000381469727,-55.79999923706055,2779096485
-0.19233154220581053,-0.9023031562805176,11.097011442565918,-0.9665911418399115,-0.3467058678425365,-0.05546830548717316,18.600000381469727,1647,0,21.899999618530273,-11.399999618530273,-56.099998474121094,2779096485
-0.004088056182861328,-0.9534341957092285,12.160361462402344,-0.8905897379891842,-0.3337977192068094,-0.012682625498266296,18.600000381469727,1648,0,21.899999618530273,-11.399999618530273,-56.099998474121094,2779096485
0.056963322448730466,-0.8056204574584961,12.269797462463378,-0.7993389673150167,-0.30915544320433486,0.02566311224660553,18.600000381469727,1649,0,21.899999618530273,-11.399999618530273,-56.099998474121094,2779096485
0.16572472763061524,-0.6831293548583984,12.50349282989502,-0.6902948718352049,-0.27766821074663806,0.06482833128487396,18.600000381469727,1650,0,21.899999618530273,-11.399999618530273,-56.099998474121094,2779096485
0.273124755859375,-0.5608428550720215,12.551652848052978,-0.5734975954219599,-0.23903683566101272,0.09887149929169571,18.600000381469727,1651,0,21.899999618530273,-12.149999618530273,-56.25,2779096485
0.46712302780151366,-0.4162711723327637,12.810107137298584,-0.4599096078635788,-0.20736013926676697,0.12797076176906463,18.600000381469727,1652,0,21.899999618530273,-12.149999618530273,-56.25,2779096485
0.5973593917846679,-0.39398404541015625,12.75642919845581,-0.34878991788135316,-0.17105018842418854,0.15561276248166503,18.5,1653,0,21.899999618530273,-12.149999618530273,-56.25,2779096485
0.6677806671142578,-0.07481920776367187,12.426179322052002,-0.2380730709586499,-0.13731837723617096,0.17104483547043425,18.5,1654,0,21.899999618530273,-12.149999618530273,-56.25,2779096485
0.7900661575317383,-0.04981837387084961,12.355270372009278,-0.1444729860871115,-0.10616252191063538,0.18319462235936204,18.5,1655,0,20.700000762939453,-11.850000381469727,-56.099998474121094,2779096485
0.896445825958252,0.14196040802001952,12.188274848937988,-0.0612461333009343,-0.08011333786135696,0.18688800731804842,18.5,1656,0,20.700000762939453,-11.850000381469727,-56.099998474121094,2779096485
0.8498583671569824,0.2769684700012207,11.769314381408691,0.006863438793060455,-0.04970510508559876,0.18781199770980422,18.5,1657,0,20.700000762939453,-11.850000381469727,-56.099998474121094,2779096485
0.7710588439941406,0.45964375381469724,11.428041486358643,0.06030976586809738,-0.021044931289939117,0.18535272824968216,18.5,1658,0,20.700000762939453,-11.850000381469727,-56.099998474121094,2779096485
0.608114217376709,0.5218329902648926,11.161007935333252,0.09422657353996597,0.0061953382328863525,0.18170114160401735,18.600000381469727,1659,0,21.299999237060547,-11.100000381469727,-56.400001525878906,2779096485
0.4616434257507324,0.5901890594482422,10.892692261505127,0.11585140149538192,0.026503159801378937,0.17684911513154083,18.700000762939453,1660,0,21.299999237060547,-11.100000381469727,-56.400001525878906,2779096485
0.27437543869018555,0.6668793754577637,10.561631039428711,0.1284708834446364,0.04225016490269119,0.16968813466773605,18.700000762939453,1661,0,21.299999237060547,-11.100000381469727,-56.400001525878906,2779096485
0.07735339660644532,0.6692762153625488,10.299591172790526,0.13708145576932296,0.05065028758158325,0.15695226592174225,18.700000762939453,1662,0,21.299999237060547,-11.100000381469727,-56.400001525878906,2779096485
-0.04318562393188476,0.6613975677490234,10.195410956573486,0.1419464651520244,0.048857940232861025,0.1428147888194774,18.5,1663,0,21.899999618530273,-12.600000381469727,-56.25,2779096485
-0.19894930114746093,0.6390786643981934,9.967463122558593,0.1496639330954851,0.039807699988932035,0.12208700006577088,18.5,1664,0,21.899999618530273,-12.600000381469727,-56.25,2779096485
-0.34766833114624024,0.6423184020996093,9.825201885223388,0.163260375710213,0.01915339450709854,0.098481872168992,18.600000381469727,1665,0,21.899999618530273,-12.600000381469727,-56.25,2779096485
-0.5076291885375976,0.594299658203125,9.7306148979187,0.1788946225717462,-0.008555404943084717,0.0766156086887114,18.700000762939453,1666,0,21.899999618530273,-12.600000381469727,-56.25,2779096485
-0.6119698570251465,0.5984221076965331,9.677299397277832,0.19584208747357817,-0.03932252530487564,0.054845565217954105,18.700000762939453,1667,0,20.850000381469727,-12.899999618530273,-55.95000076293945,2779096485
-0.6966724685668945,0.5579872383117676,9.589343963623046,0.2126249690211743,-0.07367858144811783,0.0331792318972345,18.700000762939453,1668,0,20.850000381469727,-12.899999618530273,-55.95000076293945,2779096485
-0.7351743591308594,0.5709410675048828,9.511883835601806,0.22641043615087433,-0.10708850967319504,0.012513494796500397,18.600000381469727,1669,0,20.850000381469727,-12.899999618530273,-55.95000076293945,2779096485
-0.6867334747314453,0.5471501304626465,9.513162107849121,0.23524644506028686,-0.14134819933305495,-0.007405358781653748,18.600000381469727,1670,0,20.850000381469727,-12.899999618530273,-55.95000076293945,2779096485
-0.5111644844055175,0.56493076171875,9.530148216247559,0.2355707381839972,-0.18999375912834443,-0.0402812899223262,18.600000381469727,1671,0,21.299999237060547,-12.899999618530273,-56.400001525878906,2779096485
-0.33518666229248045,0.5692992729187012,9.57911404724121,0.2324309711489119,-0.2188372383005745,-0.0657002369039685,18.600000381469727,1672,0,21.299999237060547,-12.899999618530273,-56.400001525878906,2779096485
-0.16694714813232422,0.5872614410400391,9.619029764556885,0.22676090149001754,-0.24806107013707582,-0.09337245117892823,18.600000381469727,1673,0,21.299999237060547,-12.899999618530273,-56.400001525878906,2779096485
0.005338178253173828,0.5943619400024414,9.682254763031006,0.21348770670827927,-0.274539176250672,-0.12446824556439255,18.600000381469727,1674,0,21.450000762939453,-13.199999809265137,-56.25,2779096485
0.17964022369384766,0.5843691505432129,9.774194287872314,0.1951379676599083,-0.29696956382498185,-0.1538404354462999,18.600000381469727,1675,0,21.450000762939453,-13.199999809265137,-56.25,2779096485
0.35766833572387696,0.5585171569824219,9.88941367263794,0.17214966115686645,-0.31529541431853897,-0.18547430821051147,18.600000381469727,1676,0,21.450000762939453,-13.199999809265137,-56.25,2779096485
0.49675024795532224,0.5018795616149903,9.991108785247802,0.14602278604122162,-0.32862034100409654,-0.21340113399973848,18.600000381469727,1677,0,21.450000762939453,-13.199999809265137,-56.25,2779096485
0.5811573013305664,0.4304473098754883,10.112461693572998,0.11727169858447418,-0.33646495491502654,-0.24251420496726456,18.600000381469727,1678,0,21.0,-12.600000381469727,-55.79999923706055,2779096485
0.598849257659912,0.31041996459960935,10.256548355865478,0.08708522723116287,-0.3418374762452739,-0.26964178948724044,18.600000381469727,1679,0,21.0,-12.600000381469727,-55.79999923706055,2779096485
0.5581911308288574,0.1942031364440918,10.380362442016601,0.056011703530161286,-0.3429522155487958,-0.2918922871890544,18.600000381469727,1680,0,21.0,-12.600000381469727,-55.79999923706055,2779096485
0.4979978652954101,0.04934826965332031,10.518196774291992,0.031650584099936985,-0.34121185310419466,-0.3062089683998392,18.600000381469727,1681,0,21.0,-12.600000381469727,-55.79999923706055,2779096485
0.44065210418701173,-0.09335436096191406,10.656601512145995,0.00902651147877945,-0.33648873028549486,-0.3181882264274384,18.600000381469727,1682,0,20.399999618530273,-12.75,-55.650001525878906,2779096485
0.3946522850036621,-0.23847506561279297,10.795586786651612,-0.008894891400709534,-0.3281222433309393,-0.3243117724957323,18.600000381469727,1683,0,20.399999618530273,-12.75,-55.650001525878906,2779096485
0.35085191802978516,-0.36641070404052734,10.901984586334228,-0.02158054624469498,-0.3191751073679042,-0.32601928484851306,18.600000381469727,1684,0,20.399999618530273,-12.75,-55.650001525878906,2779096485
0.301338224029541,-0.4947110237121582,10.964978065490723,-0.031542666155405887,-0.3111551842215218,-0.32420088512660616,18.600000381469727,1685,0,20.399999618530273,-12.75,-55.650001525878906,2779096485
0.2761309181213379,-0.6064157485961914,11.018562394714355,-0.0366256486139296,-0.30167289269901565,-0.318693001976983,18.600000381469727,1686,0,20.100000381469727,-12.449999809265137,-55.79999923706055,2779096485
0.23927620544433592,-0.7126420303344726,11.068678345489502,-0.039203708373658296,-0.2898865940068721,-0.3125697888038231,18.600000381469727,1687,0,20.100000381469727,-12.449999809265137,-55.79999923706055,2779096485
0.17405501174926757,-0.8209763977050781,11.065190228271485,-0.038897072007853854,-0.28174428529343615,-0.30146472671384017,18.5,1688,0,20.100000381469727,-12.449999809265137,-55.79999923706055,2779096485
0.07899171447753905,-0.8772185073852539,11.087617208862305,-0.041213083376022336,-0.27156884618087584,-0.2841103308002406,18.5,1689,0,20.100000381469727,-12.449999809265137,-55.79999923706055,2779096485
-0.006735369110107422,-0.8465333190917969,11.142021594238281,-0.03885076629471832,-0.2578267086818137,-0.2645234535654889,18.600000381469727,1690,0,20.100000381469727,-12.449999809265137,-55.5,2779096485
-0.1970684730529785,-0.6512460456848145,11.463408464050293,-0.03539210569499573,-0.24076122579708586,-0.2462148270661635,18.600000381469727,1691,0,20.100000381469727,-12.449999809265137,-55.5,2779096485
-0.3581124206542969,-0.49492355194091797,11.617258340454102,-0.026051674104880525,-0.2107502234688913,-0.23213852277371735,18.600000381469727,1692,0,20.100000381469727,-12.449999809265137,-55.5,2779096485
-0.45915331268310544,-0.37196499938964844,11.762701407623291,-0.013482572505201415,-0.1795937556163092,-0.22097461148195083,18.600000381469727,1693,0,20.100000381469727,-12.449999809265137,-55.5,2779096485
-0.49687585830688474,-0.26314830322265625,11.915624085235596,0.009545914440510865,-0.14102357997211334,-0.21521472005800812,18.600000381469727,1694,0,20.25,-12.449999809265137,-56.25,2779096485
-0.4925693298339844,-0.2731546630859375,11.769802766418456,0.031091719749024506,-0.10274376877957336,-0.2118025848822095,18.600000381469727,1695,0,20.25,-12.449999809265137,-56.25,2779096485
-0.48919912185668946,-0.27250332107543945,11.7959172706604,0.05509615535900299,-0.06922454442411041,-0.20919710787924684,18.600000381469727,1696,0,20.25,-12.449999809265137,-56.25,2779096485
-0.45754052810668944,-0.3436246124267578,11.618120677947998,0.0801825733913205,-0.03485561855498886,-0.2093115106209877,18.799999237060547,1697,0,20.25,-12.449999809265137,-56.25,2779096485
-0.48265228042602537,-0.42647465820312497,11.545769713592529,0.09915996624108796,-0.009044434552792512,-0.2081993412679001,18.799999237060547,1698,0,19.5,-12.300000190734863,-55.79999923706055,2779096485
-0.5496535148620605,-0.4698809226989746,11.381830895996094,0.11873033187719467,0.01714138297527344,-0.20202178629307052,18.799999237060547,1699,0,19.5,-12.300000190734863,-55.79999923706055,2779096485
-0.6776313972473145,-0.5536772705078125,11.241458524322509,0.13760356849744493,0.037296705282893375,-0.1946449233348848,18.799999237060547,1700,0,19.5,-12.300000190734863,-55.79999923706055,2779096485
-0.7886413772583007,-0.5955697059631347,11.183604863739014,0.15281101716561507,0.05795176310772965,-0.18182449256695937,18.700000762939453,1701,0,19.5,-12.300000190734863,-55.79999923706055,2779096485
-0.8858431533813477,-0.6762961143493652,11.009795016479492,0.16753501554652284,0.0746422329661351,-0.1666319775744992,18.700000762939453,1702,0,19.200000762939453,-12.0,-55.650001525878906,2779096485
-0.9728809959411621,-0.7478555839538574,10.925224034118653,0.18023348019526353,0.08748961492410691,-0.1439065517008525,18.700000762939453,1703,0,19.200000762939453,-12.0,-55.650001525878906,2779096485
-1.0481861213684083,-0.8250665473937988,10.833549225616455,0.1916109104259598,0.10085149962743806,-0.12172241997294724,18.600000381469727,1704,0,19.200000762939453,-12.0,-55.650001525878906,2779096485
-1.1130571014404296,-0.897625366973877,10.751529666137696,0.20213325289972978,0.11256956147502,-0.09536360350165864,18.600000381469727,1705,0,19.200000762939453,-12.0,-55.650001525878906,2779096485
-1.1204118118286133,-0.9940358726501465,10.646609545135497,0.21204424677576522,0.12093878482757675,-0.07016874820840104,18.600000381469727,1706,0,19.649999618530273,-12.600000381469727,-56.400001525878906,2779096485
-1.1045540283203126,-1.0036662239074707,10.784479280090332,0.22073998699152725,0.124820741563853,-0.04377738790881531,18.5,1707,0,19.649999618530273,-12.600000381469727,-56.400001525878906,2779096485
-1.1151947578430175,-1.0140169654846192,10.710513848876953,0.23537635405736818,0.13303922999974716,-0.017873272901019286,18.5,1708,0,19.649999618530273,-12.600000381469727,-56.400001525878906,2779096485
-1.0861992530822753,-1.0326711868286131,10.612654450225829,0.24496699628807952,0.136920281261259,0.0039899346019314575,18.600000381469727,1709,0,18.600000381469727,-13.199999809265137,-56.54999923706055,2779096485
-1.0289797752380372,-1.0607965034484863,10.47148733139038,0.25431607649377536,0.13860065600271834,0.027764313042724458,18.600000381469727,1710,0,18.600000381469727,-13.199999809265137,-56.54999923706055,2779096485
-1.0002967636108397,-1.0994895385742187,10.353421601104737,0.2504757915703697,0.13543355161923126,0.046529751560691834,18.600000381469727,1711,0,18.600000381469727,-13.199999809265137,-56.54999923706055,2779096485
-0.9921596054077149,-1.0824642890930176,10.317490087127686,0.24374282769611832,0.1357907214663727,0.0685521694904161,18.600000381469727,1712,0,18.600000381469727,-13.199999809265137,-56.54999923706055,2779096485
-0.9937575485229492,-1.0618201530456544,10.252306576538086,0.2321207261998552,0.13612950884421615,0.08896199012795776,18.600000381469727,1713,0,19.200000762939453,-13.050000190734863,-56.25,2779096485
-0.9645424125671387,-1.0091016006469726,10.245327500915527,0.21728682581941788,0.13514089684905364,0.10875526234577225,18.600000381469727,1714,0,19.200000762939453,-13.050000190734863,-56.25,2779096485
-0.9174344184875488,-0.9854597885131836,10.238214814758301,0.20237836358687347,0.131632348584554,0.12665687793849792,18.600000381469727,1715,0,19.200000762939453,-13.050000190734863,-56.25,2779096485
-0.830135523223877,-0.9475383598327637,10.215339225769043,0.18807469857582704,0.1289053981472049,0.14247087485657073,18.600000381469727,1716,0,19.200000762939453,-13.050000190734863,-56.25,2779096485
-0.7505892166137695,-0.9274731529235839,10.16593293609619,0.17027572121080764,0.12217950496559907,0.15586518354595078,18.600000381469727,1717,0,18.75,-13.050000190734863,-56.099998474121094,2779096485
-0.6507305572509765,-0.9141322868347168,10.183559545135498,0.15247709671463028,0.115361606226866,0.16898820267485154,18.600000381469727,1718,0,18.75,-13.050000190734863,-56.099998474121094,2779096485
-0.5821271926879883,-0.9003676353454589,10.229823594665527,0.13180807726787522,0.10510055980165345,0.17851183977299698,18.600000381469727,1719,0,18.75,-13.050000190734863,-56.099998474121094,2779096485
-0.5467405883789063,-0.8813713500976562,10.268477787780762,0.11514393275666428,0.09897361154509034,0.18827865010860642,18.600000381469727,1720,0,18.75,-13.050000190734863,-56.099998474121094,2779096485
-0.5348038291931152,-0.8467138465881348,10.353492331695556,0.09909201568634156,0.09248831499261154,0.19804458825896484,18.600000381469727,1721,0,19.5,-12.899999618530273,-56.099998474121094,2779096485
-0.5636788825988769,-0.8046656692504882,10.350789279174805,0.08373578286699386,0.08690788067749054,0.20861976119049622,18.600000381469727,1722,0,19.5,-12.899999618530273,-56.099998474121094,2779096485
-0.5872725814819336,-0.7752073875427246,10.424036039733886,0.06391940772688172,0.08349503976400788,0.2213756901972632,18.600000381469727,1723,0,19.5,-12.899999618530273,-56.099998474121094,2779096485
-0.613566902923584,-0.7344410339355468,10.499646144104004,0.04488811915492416,0.08018329910271256,0.2353960414755913,18.600000381469727,1724,0,19.5,-12.899999618530273,-56.099998474121094,2779096485
-0.6432815269470215,-0.6911814270019531,10.579916766357421,0.030558135454585876,0.07983843305972275,0.25056611933602174,18.600000381469727,1725,0,18.450000762939453,-13.199999809265137,-55.95000076293945,2779096485
-0.6702095825195312,-0.6031181777954101,10.61000010910034,0.02005683861118561,0.07884243079258606,0.2657236869973175,18.5,1726,0,18.450000762939453,-13.199999809265137,-55.95000076293945,2779096485
-0.6512778221130371,-0.48632578506469726,10.674842714691161,-0.0007246461276306153,0.07687506715612931,0.27974538317198683,18.5,1727,0,18.450000762939453,-13.199999809265137,-55.95000076293945,2779096485
-0.6644796195983886,-0.4147059028625488,10.760739110565185,-0.02457395260517807,0.07988002497776123,0.2877849005259549,18.5,1728,0,18.450000762939453,-13.199999809265137,-55.95000076293945,2779096485
-0.6902680229187012,-0.40798765563964845,10.996801859283448,-0.04098258012735733,0.08518542133319443,0.29642673170372147,18.600000381469727,1729,0,18.899999618530273,-13.649999618530273,-56.099998474121094,2779096485
-0.716106371307373,-0.4318547439575195,11.284864527130127,-0.043627764861900176,0.09323472580410126,0.3041937743905333,18.600000381469727,1730,0,18.899999618530273,-13.649999618530273,-56.099998474121094,2779096485
-0.7368896133422851,-0.46497524032592774,11.372701378631591,-0.03447651757642135,0.09815994925863555,0.3125645423765117,18.600000381469727,1731,0,18.899999618530273,-13.649999618530273,-56.099998474121094,2779096485
-0.7858410140991211,-0.5162260581970215,11.372197142791748,-0.018550315024491882,0.10286700655816987,0.3229914038679558,18.5,1732,0,18.899999618530273,-13.649999618530273,-56.099998474121094,2779096485
-0.8063205108642578,-0.5474652030944824,11.3257090133667,0.0013433583657286071,0.10149701658172348,0.3317076171344571,18.399999618530273,1733,0,18.899999618530273,-13.949999809265137,-56.25,2779096485
-0.8527894622802734,-0.5415396842956542,11.379913431549072,0.016618378088192443,0.10213439757893464,0.34170179484656954,18.399999618530273,1734,0,18.899999618530273,-13.949999809265137,-56.25,2779096485
-0.9542859161376953,-0.48805588073730466,11.320172886657714,0.03189117407116135,0.10479069435304947,0.3559445733376125,18.5,1735,0,18.899999618530273,-13.949999809265137,-56.25,2779096485
-1.025115163421631,-0.4235376190185547,11.26502964324951,0.042441499709893034,0.10685859897786851,0.3669455590929103,18.600000381469727,1736,0,18.899999618530273,-13.949999809265137,-56.25,2779096485
-0.9956790878295898,-0.3490333717346191,11.307868231201171,0.04835592105502563,0.11368188395986924,0.3773126991973198,18.600000381469727,1737,0,18.600000381469727,-13.949999809265137,-55.20000076293945,2779096485
-0.9257365898132324,-0.30664754180908205,11.240403958129882,0.049055526810678866,0.11616982900683166,0.38282519627349976,18.700000762939453,1738,0,18.600000381469727,-13.949999809265137,-55.20000076293945,2779096485
-0.9467704544067382,-0.29804046630859377,11.159527228546143,0.0429660026250769,0.12183710234660065,0.38735729720642365,18.700000762939453,1739,0,18.600000381469727,-13.949999809265137,-55.20000076293945,2779096485
-0.9480716804504394,-0.2755724380493164,11.29581849746704,0.04189857437799515,0.12858006639067657,0.38896697833723265,18.700000762939453,1740,0,18.600000381469727,-13.949999809265137,-55.20000076293945,2779096485
-0.9232580284118652,-0.2766539581298828,11.029094710540772,0.03820882463417175,0.1315750173845813,0.38588954258703234,18.700000762939453,1741,0,18.450000762939453,-13.800000190734863,-56.099998474121094,2779096485
-0.923456761932373,-0.3484715644836426,11.111691479492187,0.026989253276005095,0.1343624016045517,0.38464775718458133,18.5,1742,0,18.450000762939453,-13.800000190734863,-56.099998474121094,2779096485
-0.9893561019897461,-0.40904536209106446,11.189254675292968,0.013195836610505829,0.1337840762041072,0.3815289625429363,18.5,1743,0,18.450000762939453,-13.800000190734863,-56.099998474121094,2779096485
-1.1287216842651366,-0.414923851776123,11.240295133209228,0.013431759391951905,0.14243556799866167,0.3858434965321013,18.5,1744,0,18.450000762939453,-13.800000190734863,-56.099998474121094,2779096485
-0.987785262298584,-0.41741953506469726,11.209881315612792,0.011730432230760346,0.15657666034208145,0.3922278060167383,18.5,1745,0,18.600000381469727,-13.800000190734863,-56.099998474121094,2779096485
-1.0444217361450194,-0.5283878692626953,11.530804735565185,-0.0025381123436520386,0.16879529660261733,0.3955843277314555,18.5,1746,0,18.600000381469727,-13.800000190734863,-56.099998474121094,2779096485
-1.0832092407226561,-0.4758567977905273,11.55356649017334,0.006190904069701843,0.1986398047585071,0.4112930032870422,18.5,1747,0,18.600000381469727,-13.800000190734863,-56.099998474121094,2779096485
-0.9719091232299805,-0.46230897369384766,11.426366457366942,0.004876054843246613,0.2297903337618991,0.42341055261119614,18.5,1748,0,17.549999237060547,-13.5,-55.20000076293945,2779096485
-1.0829466552734375,-0.4873672294616699,11.903295578765869,0.006687656846517792,0.2665349590967104,0.43875689178716215,18.5,1749,0,17.549999237060547,-13.5,-55.20000076293945,2779096485
-0.920996257019043,-0.33347006225585935,11.653353073120117,0.022183139700406036,0.3114162871909015,0.4596403356476114,18.5,1750,0,17.549999237060547,-13.5,-55.20000076293945,2779096485
-0.9914089714050293,-0.3031571067810058,11.759973083496094,0.029478563193016817,0.3563269433463956,0.47321925466248704,18.600000381469727,1751,0,17.549999237060547,-13.5,-55.20000076293945,2779096485
-1.037238581085205,-0.17553474655151366,11.751830093383788,0.05342428941716797,0.4063248829655443,0.49432647063199237,18.600000381469727,1752,0,19.049999237060547,-13.949999809265137,-56.099998474121094,2779096485
-0.9395699905395507,-0.0934204933166504,11.568027905273437,0.07275218755349472,0.4555494938726703,0.5083006027499197,18.600000381469727,1753,0,19.049999237060547,-13.949999809265137,-56.099998474121094,2779096485
-1.0337604080200196,-0.012645635223388671,11.362418152618408,0.08353527346989975,0.5008767549725252,0.5186966714414714,18.600000381469727,1754,0,19.049999237060547,-13.949999809265137,-56.099998474121094,2779096485
-1.0354723724365233,0.1043068733215332,11.090766065979004,0.09547101544558609,0.5416456563712885,0.5301011460728515,18.600000381469727,1755,0,19.049999237060547,-13.949999809265137,-56.099998474121094,2779096485
-0.8166479621887207,0.11932351608276366,10.705434741973876,0.09477788782923996,0.5778501526933272,0.5306121800509149,18.600000381469727,1756,0,18.600000381469727,-13.800000190734863,-55.79999923706055,2779096485
-0.8462284523010254,0.07719234619140625,10.605832275390625,0.07286443979267014,0.6045251995681813,0.5272438272431363,18.600000381469727,1757,0,18.600000381469727,-13.800000190734863,-55.79999923706055,2779096485
-0.8832140838623047,0.1007215950012207,10.342652868652344,0.056713286682910306,0.6298380795022374,0.5223206144752112,18.5,1758,0,18.600000381469727,-13.800000190734863,-55.79999923706055,2779096485
-0.9280842323303222,0.06408741073608398,10.221636379241943,0.03360949219999085,0.6492282623181304,0.5150899324282553,18.5,1759,0,18.600000381469727,-13.800000190734863,-55.79999923706055,2779096485
-1.089702099609375,-0.046777967834472654,10.296283919525147,0.01096440723797699,0.6629514247945562,0.5051619742161926,18.600000381469727,1760,0,19.350000381469727,-14.399999618530273,-55.95000076293945,2779096485
-1.2265455307006836,-0.09844677658081054,10.250903142547607,-0.0026457107088545227,0.675637818665739,0.5013668831361751,18.700000762939453,1761,0,19.350000381469727,-14.399999618530273,-55.95000076293945,2779096485
-1.3806094680786132,-0.17102234420776366,10.260897801208495,-0.010092321855510102,0.6851832870267703,0.4954743862645659,18.700000762939453,1762,0,19.350000381469727,-14.399999618530273,-55.95000076293945,2779096485
-1.4888988998413086,-0.26191646194458007,10.33440310974121,-0.006269620453080902,0.6921774537389417,0.4943501061865044,18.700000762939453,1763,0,19.350000381469727,-14.399999618530273,-55.95000076293945,2779096485
-1.6000769210815429,-0.38606113510131834,10.401866896820067,0.003558309429125824,0.6967394286811882,0.4965606696920358,18.600000381469727,1764,0,19.5,-13.350000381469727,-55.5,2779096485
-1.7302990417480468,-0.4841280151367187,10.377237323760985,0.023725749119622344,0.6969884808467182,0.5024650842094412,18.600000381469727,1765,0,19.5,-13.350000381469727,-55.5,2779096485
-1.8034945487976073,-0.5507628860473632,10.404059619903563,0.04570811310682709,0.7027815485997125,0.5164919802061032,18.600000381469727,1766,0,19.5,-13.350000381469727,-55.5,2779096485
-1.8179088226318358,-0.5918754531860352,10.399781204223633,0.06671665230072037,0.7064526096107148,0.5279021473442743,18.600000381469727,1767,0,19.5,-13.350000381469727,-55.5,2779096485
-1.8145858306884766,-0.629388461303711,10.322675327301026,0.08389478024088165,0.7111508451891988,0.5414058520325803,18.5,1768,0,19.200000762939453,-14.25,-55.20000076293945,2779096485
-1.803406883239746,-0.656085969543457,10.223773661804199,0.09531281036211715,0.7162354921233923,0.5578258845420494,18.5,1769,0,19.200000762939453,-14.25,-55.20000076293945,2779096485
-1.7871746612548827,-0.674022193145752,10.148862152862549,0.09886220485955521,0.7250693904776555,0.5728115185245513,18.5,1770,0,19.200000762939453,-14.25,-55.20000076293945,2779096485
-1.7640983200073241,-0.6987703109741211,10.119890125274658,0.09656351069625595,0.7327530096438939,0.5904470643524983,18.5,1771,0,19.200000762939453,-14.25,-55.20000076293945,2779096485
-1.7525170082092285,-0.7097203559875488,10.087554170227051,0.0908452844272812,0.7451201770553055,0.6105225251174783,18.5,1772,0,18.75,-14.699999809265137,-55.20000076293945,2779096485
-1.7467735122680663,-0.7148669784545898,10.065222556304931,0.08356669211264404,0.753786103182869,0.6281719260409013,18.5,1773,0,18.75,-14.699999809265137,-55.20000076293945,2779096485
-1.7199008224487304,-0.7116078384399414,10.081933144378661,0.07890668621134536,0.7625586955692598,0.6475320417682939,18.5,1774,0,18.75,-14.699999809265137,-55.20000076293945,2779096485
-1.6844716751098632,-0.6922869102478028,10.083267754364014,0.07390592885091278,0.7684502337028831,0.6658170260552047,18.5,1775,0,18.75,-14.699999809265137,-55.20000076293945,2779096485
-1.6392001342773437,-0.6222086334228515,10.033478614807128,0.07800189055301437,0.7691252984292599,0.6816442322521935,18.5,1776,0,19.200000762939453,-13.949999809265137,-54.900001525878906,2779096485
-1.5848887603759765,-0.5345480476379394,9.976819822692871,0.08404572155252732,0.7611335515270169,0.6910670420721614,18.5,1777,0,19.200000762939453,-13.949999809265137,-54.900001525878906,2779096485
-1.5107468391418457,-0.4330400421142578,9.932021002960205,0.09316378585105178,0.746600701532036,0.7013169697998993,18.5,1778,0,19.200000762939453,-13.949999809265137,-54.900001525878906,2779096485
-1.4398342628479004,-0.31739253540039064,9.890850827026368,0.10447299921089447,0.7313373397971639,0.7087557445951012,18.600000381469727,1779,0,19.200000762939453,-13.949999809265137,-54.900001525878906,2779096485
-1.370949508666992,-0.19089285507202147,9.875005268096924,0.11659410385507919,0.7124941236600952,0.7141235121828354,18.600000381469727,1780,0,18.899999618530273,-15.149999618530273,-55.349998474121094,2779096485
-1.312817411804199,-0.05201662979125976,9.844409427642821,0.13062121956252962,0.6924124444140126,0.7148695701254831,18.600000381469727,1781,0,18.899999618530273,-15.149999618530273,-55.349998474121094,2779096485
-1.2594696113586425,0.07482945098876953,9.8236477935791,0.14462859458853547,0.6792466416024937,0.716315693219069,18.600000381469727,1782,0,18.899999618530273,-15.149999618530273,-55.349998474121094,2779096485
-1.1997286552429198,0.1744343101501465,9.84329504699707,0.1610897329891475,0.6633645476558155,0.7145940727705105,18.600000381469727,1783,0,18.899999618530273,-15.149999618530273,-55.349998474121094,2779096485
-1.167429074859619,0.2600098014831543,9.809500217437744,0.18426124500021956,0.6523234347210687,0.7114740797063831,18.600000381469727,1784,0,18.600000381469727,-14.850000381469727,-54.599998474121094,2779096485
-1.1326198295593262,0.3483488327026367,9.71197809753418,0.20071635134100402,0.6385942801322314,0.7096543816934536,18.600000381469727,1785,0,18.600000381469727,-14.850000381469727,-54.599998474121094,2779096485
-1.0697189506530762,0.42474830093383786,9.571137266540527,0.21988464623429915,0.623384947277603,0.7022172047948949,18.600000381469727,1786,0,18.600000381469727,-14.850000381469727,-54.599998474121094,2779096485
-0.9999727188110351,0.5080681144714355,9.36768274078369,0.23512581052163803,0.6074508750847064,0.6944340766152095,18.600000381469727,1787,0,19.950000762939453,-15.0,-54.900001525878906,2779096485
-0.9576650588989257,0.5894728561401367,9.179321756744384,0.24104290168574508,0.5852855119844546,0.68308379731164,18.600000381469727,1788,0,19.950000762939453,-15.0,-54.900001525878906,2779096485
-0.9376127868652343,0.6721685432434081,9.007241332244872,0.2435958212049562,0.559386703325094,0.670041392068382,18.799999237060547,1789,0,19.950000762939453,-15.0,-54.900001525878906,2779096485
-0.9173996139526367,0.9910180465698242,8.260026585388184,0.21315775436729142,0.3337483641742467,0.5488930630697751,18.600000381469727,1795,0,19.200000762939453,-15.75,-55.04999923706055,2779096485
-0.9083757438659668,0.9983749626159668,8.170261241149902,0.1988300809591829,0.2929635903354956,0.5230071574258074,18.399999618530273,1796,0,19.799999237060547,-15.600000381469727,-54.75,2779096485
-0.9101564949035644,0.9790138839721679,8.101359365081787,0.17817138126158097,0.25270792668058256,0.4978702258858609,18.399999618530273,1797,0,19.799999237060547,-15.600000381469727,-54.75,2779096485
-0.930363948059082,0.9552254142761231,8.034914031219483,0.15436854028683333,0.2127169213150801,0.47256222619446886,18.399999618530273,1798,0,19.799999237060547,-15.600000381469727,-54.75,2779096485
-0.9841168792724609,0.9380834518432617,7.988462762451172,0.12981914202673706,0.17461853797055496,0.4493369582771629,18.600000381469727,1799,0,19.350000381469727,-15.449999809265137,-54.75,2779096485
-1.00759027633667,0.921760237121582,7.941173829650879,0.0978194041944847,0.13506992360649078,0.43175297124756545,18.600000381469727,1800,0,19.350000381469727,-15.449999809265137,-54.75,2779096485
-1.022613274383545,0.8903348449707031,7.890236065673828,0.061882801902558744,0.0983791673622589,0.41299567534457504,18.600000381469727,1801,0,19.350000381469727,-15.449999809265137,-54.75,2779096485
-1.0219047721862793,0.8589936790466308,7.858686408996582,0.022299613049880217,0.06207512873725983,0.39343680124849306,18.799999237060547,1802,0,19.350000381469727,-15.449999809265137,-54.75,2779096485
-0.9903983688354492,0.8396965270996094,7.855157917022705,-0.01861293259919205,0.024949365105661165,0.3767805663256653,18.799999237060547,1803,0,18.899999618530273,-15.300000190734863,-54.150001525878906,2779096485
-0.9621518905639648,0.8318810958862305,7.849333821105957,-0.0632023050029869,-0.014104067746619415,0.35869380777522963,18.799999237060547,1804,0,18.899999618530273,-15.300000190734863,-54.150001525878906,2779096485
-0.9579454765319824,0.8416386650085449,7.893065962219238,-0.1093812450135962,-0.051700298755255586,0.3358981277125095,18.799999237060547,1805,0,18.899999618530273,-15.300000190734863,-54.150001525878906,2779096485
-0.9921730262756348,0.8458810050964355,7.9938180625915525,-0.15378215216624405,-0.08959295290698593,0.3138244971953749,18.700000762939453,1806,0,18.899999618530273,-15.300000190734863,-54.150001525878906,2779096485
-1.0697692695617675,0.8352367240905761,8.1610647315979,-0.19663238052162813,-0.12579130398485153,0.29354880000731065,18.700000762939453,1807,0,19.5,-15.75,-55.349998474121094,2779096485
-1.1231042472839354,0.7726475158691406,8.325025643157959,-0.23566386226877456,-0.15776919058050995,0.2753264000055867,18.700000762939453,1808,0,19.5,-15.75,-55.349998474121094,2779096485
-1.2291309730529785,0.6978028869628906,8.58490609588623,-0.2682539629895158,-0.18462742964758896,0.2579685220088858,18.600000381469727,1809,0,19.5,-15.75,-55.349998474121094,2779096485
-1.3262927108764648,0.6102555000305175,8.834551062011718,-0.29446360249336884,-0.20906120011185136,0.2474621451857411,18.600000381469727,1810,0,19.5,-15.75,-55.349998474121094,2779096485
-1.4255537117004393,0.5268829750061035,9.094299848175048,-0.31247765674654493,-0.22951582843442567,0.2396293889994832,18.600000381469727,1811,0,19.5,-15.600000381469727,-54.599998474121094,2779096485
-1.527267665863037,0.434573908996582,9.341788092041016,-0.3210604989065717,-0.2505728038703119,0.23375777131067674,18.600000381469727,1812,0,19.5,-15.600000381469727,-54.599998474121094,2779096485
-1.6316427276611327,0.3517665184020996,9.545630589294433,-0.3231046880820465,-0.2683716547351804,0.23038700168422546,18.600000381469727,1813,0,19.5,-15.600000381469727,-54.599998474121094,2779096485
-1.7365397827148437,0.2833855514526367,9.739399360656739,-0.322881215578611,-0.2855234706439525,0.22899787689547837,18.600000381469727,1814,0,19.5,-15.600000381469727,-54.599998474121094,2779096485
-1.8206286979675292,0.23287744216918946,9.983197426605225,-0.3215026502235135,-0.30055115593977766,0.22913874480037003,18.700000762939453,1815,0,18.899999618530273,-15.300000190734863,-54.75,2779096485
-1.876742916870117,0.19003358306884766,10.175219092559814,-0.315815323280874,-0.31233290728439117,0.22979222460626006,18.700000762939453,1816,0,18.899999618530273,-15.300000190734863,-54.75,2779096485
-1.8862284049987792,0.1512076850891113,10.374869045257569,-0.3099478401496315,-0.32057715514575214,0.23161103711813308,18.700000762939453,1817,0,18.899999618530273,-15.300000190734863,-54.75,2779096485
-1.8755588523864746,0.12128890686035156,10.603326984405518,-0.30395860395209,-0.3253910384937781,0.23404719034015214,18.600000381469727,1818,0,18.899999618530273,-15.300000190734863,-54.75,2779096485
-1.8734930854797363,0.0871078254699707,10.813554300689697,-0.2951420627501122,-0.3265452724759944,0.23555922667026444,18.5,1819,0,18.149999618530273,-16.200000762939453,-55.650001525878906,2779096485
-1.8394963073730468,0.0354317642211914,11.01919571762085,-0.28022042452816515,-0.3232036777790845,0.2363104511453914,18.5,1820,0,18.149999618530273,-16.200000762939453,-55.650001525878906,2779096485
-1.8248178031921387,-0.007030516052246093,11.215670943450927,-0.2695915023483026,-0.3155171224777644,0.24204083474465882,18.5,1821,0,18.149999618530273,-16.200000762939453,-55.650001525878906,2779096485
-1.8614914649963379,0.031196527099609375,11.471451190185547,-0.2541761140636481,-0.30174800049914247,0.2448360619739856,18.5,1822,0,18.149999618530273,-16.200000762939453,-55.650001525878906,2779096485
-1.8576001983642578,0.06240146560668945,11.638031600952148,-0.241144820859962,-0.27847424973452484,0.2469724431278627,18.5,1823,0,18.0,-15.149999618530273,-55.20000076293945,2779096485
-1.7903050132751464,0.06081720504760742,11.730204140472411,-0.22899497404991012,-0.2518185973301759,0.2458407128567029,18.5,1824,0,18.0,-15.149999618530273,-55.20000076293945,2779096485
-1.725204158782959,0.09225811157226563,11.82855984954834,-0.21617152725207092,-0.2235092151108908,0.24288823262399034,18.5,1825,0,18.0,-15.149999618530273,-55.20000076293945,2779096485
-1.6770246635437012,0.12880702285766601,11.872573305511475,-0.20654367400328416,-0.19426466388125108,0.23714023887213578,18.5,1826,0,18.0,-15.449999809265137,-54.75,2779096485
-1.6516357833862305,0.13674170913696287,11.943454553985596,-0.1960608062345006,-0.16217365286116622,0.23047297518152512,18.5,1827,0,18.0,-15.449999809265137,-54.75,2779096485
-1.629488136291504,0.1300797996520996,11.936286053466796,-0.1869010967547162,-0.12705036664475572,0.22280329766349746,18.5,1828,0,18.0,-15.449999809265137,-54.75,2779096485
-1.6020273582458495,0.11726361846923827,11.91566546936035,-0.1760729501529767,-0.09541614101170212,0.21622650821239778,18.5,1829,0,18.0,-15.449999809265137,-54.75,2779096485
-1.6192305931091309,0.07795314865112304,11.872621418762206,-0.16951682683179398,-0.06422883375390885,0.2093044798757582,18.600000381469727,1830,0,17.399999618530273,-15.449999809265137,-54.75,2779096485
-1.6411281410217284,-0.001509417724609375,11.75551806564331,-0.16569174855810823,-0.03335978090209564,0.20511490806198365,18.799999237060547,1831,0,17.399999618530273,-15.449999809265137,-54.75,2779096485
-1.6553607284545897,-0.12012645034790038,11.637343473052978,-0.1590320216133307,-0.009017010651655884,0.2060026461736499,18.799999237060547,1832,0,17.399999618530273,-15.449999809265137,-54.75,2779096485
-1.6490803604125976,-0.24465587997436522,11.540892779541016,-0.1553363130466092,0.011642874152622986,0.20790905005317367,18.799999237060547,1833,0,17.399999618530273,-15.449999809265137,-54.75,2779096485
-1.6714613586425782,-0.3433113716125488,11.455173434448241,-0.145916685704122,0.02867223125741211,0.21414974857701508,18.700000762939453,1834,0,16.649999618530273,-15.149999618530273,-55.650001525878906,2779096485
-1.6980212188720702,-0.40026560974121095,11.363406549072264,-0.13574972875957536,0.04318493443888504,0.22175853957503922,18.600000381469727,1835,0,16.649999618530273,-15.149999618530273,-55.650001525878906,2779096485
-1.770954514312744,-0.4107328399658203,11.351677084350586,-0.12394147896229767,0.05798239611795777,0.23415757170867463,18.600000381469727,1836,0,16.649999618530273,-15.149999618530273,-55.650001525878906,2779096485
-1.8456157371520996,-0.4209656723022461,11.295885452270507,-0.11143495498990265,0.07518024476585557,0.2427437561358464,18.600000381469727,1837,0,16.649999618530273,-15.149999618530273,-55.650001525878906,2779096485
-1.899144962310791,-0.4792022201538086,11.212554535675048,-0.0965476582299762,0.09205493879140121,0.26065038512928973,18.5,1838,0,17.850000381469727,-15.149999618530273,-55.20000076293945,2779096485
-1.9552920417785644,-0.49117647552490235,11.149243292236328,-0.08070685659571594,0.10791394978948975,0.27719828931762025,18.5,1839,0,17.850000381469727,-15.149999618530273,-55.20000076293945,2779096485
-1.9576510116577148,-0.4669454162597656,10.942876251220703,-0.06729797375737061,0.12435005447602707,0.29547429875171904,18.600000381469727,1840,0,17.850000381469727,-15.149999618530273,-55.20000076293945,2779096485
-1.9179409812927246,-0.4175168830871582,10.781633345794678,-0.05746370555181305,0.1379373358166681,0.30725364659346527,18.600000381469727,1841,0,17.850000381469727,-15.149999618530273,-55.20000076293945,2779096485
-1.864992031097412,-0.40986018447875977,10.604446935272216,-0.0537463787750914,0.14902239090909927,0.3231361733038176,18.600000381469727,1842,0,17.399999618530273,-15.0,-55.04999923706055,2779096485
-1.82603570022583,-0.373655729675293,10.4508864112854,-0.050551664069192655,0.15664202763058824,0.3345954025268335,18.600000381469727,1843,0,17.399999618530273,-15.0,-55.04999923706055,2779096485
-1.7879669410705565,-0.3578450874328613,10.266837600708007,-0.047002948677827915,0.16067045822581222,0.34688032486644593,18.5,1844,0,17.399999618530273,-15.0,-55.04999923706055,2779096485
-1.7499017333984375,-0.3631580688476562,10.075020537567138,-0.04849573701129395,0.16134844577146532,0.3637228545641472,18.5,1845,0,17.399999618530273,-15.0,-55.04999923706055,2779096485
-1.7348118927001952,-0.28172801818847654,9.984428819274902,-0.05022711794518051,0.15616342429647645,0.3759699733323457,18.600000381469727,1846,0,16.799999237060547,-14.850000381469727,-54.900001525878906,2779096485
-1.7300929061889647,-0.13759541091918945,9.853292808532714,-0.05614210521204086,0.153692323743293,0.3881331093161458,18.600000381469727,1847,0,16.799999237060547,-14.850000381469727,-54.900001525878906,2779096485
-1.6610233253479003,-0.062168787384033204,9.778426384735107,-0.06556178581774948,0.14873064827158874,0.3968747491129799,18.600000381469727,1848,0,16.799999237060547,-14.850000381469727,-54.900001525878906,2779096485
-1.5874426132202148,0.05331374359130859,9.762209826660156,-0.07725998714163865,0.14714952288537186,0.4023531310958304,18.600000381469727,1849,0,16.799999237060547,-14.850000381469727,-54.900001525878906,2779096485
-1.497188734436035,0.12038929748535156,9.75689613494873,-0.085312001378936,0.1442568572503314,0.406100678092814,18.5,1850,0,17.100000381469727,-15.149999618530273,-54.75,2779096485
-1.4668904708862305,0.1704855842590332,9.773227947998047,-0.09107118706519471,0.14273634541010818,0.40739354292462177,18.5,1851,0,17.100000381469727,-15.149999618530273,-54.75,2779096485
-1.4165298789978027,0.19390312957763672,9.733929740142822,-0.09499803138133575,0.14183667633684036,0.4075914157922548,18.5,1852,0,17.100000381469727,-15.149999618530273,-54.75,2779096485
-1.3551467918395996,0.16557993927001952,9.665140352630615,-0.0970764887819017,0.1355636070901715,0.40888817549712997,18.5,1853,0,17.100000381469727,-15.149999618530273,-54.75,2779096485
-1.2917474716186523,0.08746581497192382,9.623233150482177,-0.09757252250522827,0.12577484564942795,0.40810944722603426,18.5,1854,0,17.100000381469727,-14.399999618530273,-55.349998474121094,2779096485
-1.2762474159240722,0.061770236206054686,9.65783394241333,-0.09492198481693115,0.11381088082428345,0.41511354087110064,18.5,1855,0,17.100000381469727,-14.399999618530273,-55.349998474121094,2779096485
-1.2758370887756347,0.09373425750732421,9.67573263244629,-0.09286371417728928,0.10112021923748306,0.417959121818392,18.5,1856,0,17.100000381469727,-14.399999618530273,-55.349998474121094,2779096485
-1.2450979553222656,0.14665116958618163,9.73528285522461,-0.092123089083228,0.08957616167642837,0.41962777865113554,18.5,1857,0,17.100000381469727,-14.399999618530273,-55.349998474121094,2779096485
-1.181873218536377,0.22327359619140624,9.848204542541504,-0.09306497591738618,0.08327464321161027,0.4173897779286621,18.5,1858,0,17.100000381469727,-14.399999618530273,-54.599998474121094,2779096485
-1.1037540473937988,0.27174360275268555,9.90466374130249,-0.09898254645048614,0.08245373712704025,0.4131595529611269,18.600000381469727,1859,0,17.100000381469727,-14.399999618530273,-54.599998474121094,2779096485
-1.0403822792053223,0.3273478286743164,9.917673347473144,-0.1100610368508754,0.0836430116510585,0.40423180481069426,18.600000381469727,1860,0,17.100000381469727,-14.399999618530273,-54.599998474121094,2779096485
-1.0342865135192871,0.375017106628418,9.992648820495605,-0.1271975462413875,0.09304763208090622,0.39339399093426425,18.600000381469727,1861,0,17.100000381469727,-14.399999618530273,-54.599998474121094,2779096485
-1.0234163955688476,0.3822141311645508,10.158142552185058,-0.147310091524292,0.10874758578398284,0.382364309618418,18.600000381469727,1862,0,17.549999237060547,-15.0,-54.75,2779096485
-1.1020977851867675,0.3389325424194336,10.324899639892578,-0.1689329620563202,0.1260388181748625,0.3729619928228973,18.5,1863,0,17.549999237060547,-15.0,-54.75,2779096485
-1.2687545715332031,0.4225617462158203,10.587583708190918,-0.18760687438615326,0.15428610879375915,0.36197281152905014,18.5,1864,0,17.549999237060547,-15.0,-54.75,2779096485
-1.491195849609375,0.5925079536437988,10.81200465774536,-0.20386031285477738,0.19372178515467195,0.346137988691396,18.600000381469727,1865,0,18.450000762939453,-14.850000381469727,-54.29999923706055,2779096485
-1.552872438812256,0.5477584808349609,10.940463485717773,-0.22544789650260452,0.23584895196326308,0.33085547217051514,18.600000381469727,1866,0,18.450000762939453,-14.850000381469727,-54.29999923706055,2779096485
-1.6015123931884765,0.34816658554077146,10.987102198028564,-0.2448768682595079,0.28117269769050324,0.314466345645284,18.600000381469727,1867,0,18.450000762939453,-14.850000381469727,-54.29999923706055,2779096485
-1.7686961074829102,0.18390529327392577,11.0096493309021,-0.2623874385962592,0.32974278350101854,0.30829072146223147,18.600000381469727,1868,0,18.450000762939453,-14.850000381469727,-54.29999923706055,2779096485
-1.9817190017700195,0.0941155746459961,11.01467550201416,-0.2774906977453987,0.3813572818644441,0.30652981272996155,18.5,1869,0,18.299999237060547,-15.0,-55.04999923706055,2779096485
-2.233315003204346,0.08128275756835937,11.207191497039794,-0.29537985640221115,0.4392368200439072,0.3082899957508394,18.5,1870,0,18.299999237060547,-15.0,-55.04999923706055,2779096485
-2.4859725242614745,0.04664503021240234,11.403797604370117,-0.310421609846398,0.5086412077351947,0.3142550104984331,18.5,1871,0,18.299999237060547,-15.0,-55.04999923706055,2779096485
-2.6326388343811034,-0.048292357635498044,11.508265939331054,-0.31818517045010847,0.5836441392368913,0.32461579896368636,18.700000762939453,1872,0,18.299999237060547,-15.0,-55.04999923706055,2779096485
-2.7209694541931153,-0.22055084228515626,11.543452800750732,-0.3165355485611255,0.6581337597578082,0.34019532452309725,18.799999237060547,1873,0,16.950000762939453,-14.699999809265137,-54.900001525878906,2779096485
-2.7709116439819335,-0.4441771194458008,11.45105748977661,-0.30118273790375505,0.7281709544671662,0.3614451327942882,18.799999237060547,1874,0,16.950000762939453,-14.699999809265137,-54.900001525878906,2779096485
-2.8117563171386717,-0.493620344543457,11.43288941040039,-0.2786796926375044,0.7880471910022916,0.3866859076423259,18.700000762939453,1875,0,16.950000762939453,-14.699999809265137,-54.900001525878906,2779096485
-2.821833669281006,-0.5182689086914062,11.303246443176269,-0.24533692933465745,0.8414739105539375,0.41308816027069517,18.5,1876,0,16.950000762939453,-14.699999809265137,-54.900001525878906,2779096485
-2.7894049644470216,-0.5475932807922363,11.058488205718994,-0.2076086388263745,0.8780004096811649,0.4348321313945598,18.5,1877,0,17.399999618530273,-14.100000381469727,-54.75,2779096485
-2.72439801864624,-0.5532986450195312,10.817508185577392,-0.16199968852205507,0.9012226083053355,0.45596015330993833,18.600000381469727,1878,0,17.399999618530273,-14.100000381469727,-54.75,2779096485
-2.6472823844909668,-0.45877685546874997,10.482540631103515,-0.11621998298771591,0.9116749029850151,0.4752358468313556,18.799999237060547,1879,0,17.399999618530273,-14.100000381469727,-54.75,2779096485
-2.5272078231811523,-0.3216967086791992,10.131098194885254,-0.07492559330417221,0.9120925332463885,0.4880375888664598,18.799999237060547,1880,0,17.399999618530273,-14.100000381469727,-54.75,2779096485
-2.380611944580078,-0.1904789764404297,9.863022227478027,-0.04207988904166443,0.903927514426913,0.49600931545534577,18.799999237060547,1881,0,18.600000381469727,-13.949999809265137,-55.349998474121094,2779096485
-2.202602823638916,-0.017728106689453123,9.55436592941284,-0.014679343827636719,0.8854744380710544,0.4995936439681429,18.600000381469727,1882,0,18.600000381469727,-13.949999809265137,-55.349998474121094,2779096485
-2.036916825866699,0.19682143936157226,9.301306081390381,0.0041481130537896725,0.8648163575584017,0.49625040476927107,18.5,1883,0,18.600000381469727,-13.949999809265137,-55.349998474121094,2779096485
-1.924147029876709,0.4145634323120117,9.089434241485595,0.016874341156703644,0.8425192545378316,0.4897658539018924,18.5,1884,0,18.600000381469727,-13.949999809265137,-55.349998474121094,2779096485
-1.8109767013549805,0.5556810920715332,8.828781621551514,0.019832746922800903,0.8164224864581032,0.4807935776983397,18.5,1885,0,18.0,-13.949999809265137,-54.29999923706055,2779096485
-1.6477020111083984,0.6950854789733887,8.637914860534668,0.02200380909173523,0.7836456315672036,0.47139274561511657,18.5,1886,0,18.0,-13.949999809265137,-54.29999923706055,2779096485
-1.4868392265319823,0.7880586349487304,8.444999230194092,0.019350594926560976,0.746282487073472,0.45812818613315354,18.5,1887,0,18.0,-13.949999809265137,-54.29999923706055,2779096485
-1.369338892364502,0.8999264663696289,8.312899421691894,0.0171757910163208,0.7005304118352526,0.43992208467718885,18.700000762939453,1888,0,18.0,-13.949999809265137,-54.29999923706055,2779096485
-1.281667128753662,0.8911103019714355,8.196468569946289,0.016637506242590486,0.6481446420517322,0.42019042469076995,18.700000762939453,1889,0,18.450000762939453,-13.800000190734863,-54.900001525878906,2779096485
-1.2537718360900878,0.9486022720336914,8.105463010406494,0.019871069810623778,0.5874324392561758,0.40337155717919143,18.700000762939453,1890,0,18.450000762939453,-13.800000190734863,-54.900001525878906,2779096485
-1.2662617294311522,1.0798271446228027,8.034354990386962,0.021871117091333922,0.5236188855239946,0.3849362707392923,18.700000762939453,1891,0,18.450000762939453,-13.800000190734863,-54.900001525878906,2779096485
-1.2547591110229492,1.1526430168151856,8.00820313949585,0.02109346074256958,0.45980482579120974,0.3636149499354214,18.600000381469727,1892,0,18.450000762939453,-13.800000190734863,-54.900001525878906,2779096485
-1.225568349456787,1.097360555267334,7.980189601135254,0.02416190166625,0.39576899132017257,0.34644619632223284,18.600000381469727,1893,0,17.549999237060547,-14.399999618530273,-53.70000076293945,2779096485
-1.1767869712829588,1.056415618133545,7.923929360198974,0.02887470473579666,0.3308384079659477,0.3327137460715692,18.600000381469727,1894,0,17.549999237060547,-14.399999618530273,-53.70000076293945,2779096485
-1.1533847534179686,0.9752922660827636,7.899818116760254,0.033074103613926084,0.26352614634942706,0.3228850105831383,18.5,1895,0,17.549999237060547,-14.399999618530273,-53.70000076293945,2779096485
-1.1386824729919434,0.9061126640319824,7.900312819671631,0.03965457488520752,0.19131803594499375,0.31532958933299254,18.5,1896,0,17.549999237060547,-14.399999618530273,-53.70000076293945,2779096485
-1.1229208038330079,0.8043298858642578,7.888956372833252,0.04650211460666946,0.12059200796651795,0.31102834451757566,18.600000381469727,1897,0,18.149999618530273,-14.550000190734863,-54.599998474121094,2779096485
-1.1184979362487792,0.7049654060363769,7.868846379852295,0.05615877660035019,0.04570447123406143,0.31198354715709276,18.600000381469727,1898,0,18.149999618530273,-14.550000190734863,-54.599998474121094,2779096485
-1.1179548210144044,0.6734465911865234,7.845060826110839,0.06693097018797164,-0.028116482804953612,0.3149214266092293,18.600000381469727,1899,0,18.149999618530273,-14.550000190734863,-54.599998474121094,2779096485
-1.1225728706359863,0.6198006156921386,7.817468643188477,0.072477023093656,-0.10496926596081482,0.31969933065117556,18.700000762939453,1900,0,18.600000381469727,-15.300000190734863,-55.04999923706055,2779096485
-1.1498203353881835,0.6080632629394531,7.825930743408203,0.07637199602967057,-0.1797877336108748,0.32855140507975356,18.700000762939453,1901,0,18.600000381469727,-15.300000190734863,-55.04999923706055,2779096485
-1.1858950675964355,0.6637019569396972,7.8946430824279785,0.07490772349338058,-0.2504136067593437,0.33939725504471774,18.700000762939453,1902,0,18.600000381469727,-15.300000190734863,-55.04999923706055,2779096485
-1.2212229415893554,0.6939302375793457,8.032345262145995,0.06887976493385543,-0.31278881382826873,0.350139461438671,18.700000762939453,1903,0,18.600000381469727,-15.300000190734863,-55.04999923706055,2779096485
-1.2710016510009765,0.7117436172485352,8.209558963012695,0.0662363911488414,-0.368139227832697,0.36347078636870345,18.700000762939453,1904,0,17.850000381469727,-15.149999618530273,-54.599998474121094,2779096485
-1.3209325134277343,0.7399084861755371,8.373909864807128,0.06217498396164612,-0.4160428043217786,0.3767808925628966,18.700000762939453,1905,0,17.850000381469727,-15.149999618530273,-54.599998474121094,2779096485
-1.3476215728759766,0.7700322410583496,8.523535943603516,0.06158694468119232,-0.4591788031759697,0.3921440229694202,18.700000762939453,1906,0,17.850000381469727,-15.149999618530273,-54.599998474121094,2779096485
-1.3656728271484375,0.8190148574829101,8.684555292510986,0.06391795630409759,-0.49677279712930555,0.4017702650057585,18.700000762939453,1907,0,17.850000381469727,-15.149999618530273,-54.599998474121094,2779096485
-1.328255596923828,0.9009374801635742,8.84553523864746,0.06723642144709915,-0.5309863142340836,0.4105698551875145,18.600000381469727,1908,0,17.700000762939453,-15.0,-54.45000076293945,2779096485
-1.2812250251770019,1.0163159339904786,9.000659873199462,0.06783290960605316,-0.5571649478851584,0.4135568699614253,18.600000381469727,1909,0,17.700000762939453,-15.0,-54.45000076293945,2779096485
-1.2048020797729493,1.319252138519287,9.109213311004638,0.0564443074146608,-0.5745204157210894,0.41066970375399814,18.600000381469727,1910,0,17.700000762939453,-15.0,-54.45000076293945,2779096485
-1.1265937103271484,1.573099144744873,9.49204869003296,0.03431390496137863,-0.577712493897527,0.3896658716972992,18.600000381469727,1911,0,17.700000762939453,-15.0,-54.45000076293945,2779096485
-1.1204509529113769,1.7365411659240721,9.883941435241699,0.012408659460909882,-0.5702322004212161,0.35938806057712863,18.600000381469727,1912,0,16.799999237060547,-15.0,-54.0,2779096485
-1.1291195999145507,1.8196660217285157,10.307247198486328,0.00031448603306350706,-0.5529027250373457,0.32134302700677386,18.600000381469727,1913,0,16.799999237060547,-15.0,-54.0,2779096485
-1.1851121711730956,1.886434839630127,10.705852695465088,-0.0019345801236631776,-0.5291445053263557,0.27934768667123566,18.5,1914,0,16.799999237060547,-15.0,-54.0,2779096485
-1.1932627128601074,1.9876649322509765,11.015903567504882,0.006119611247810364,-0.4990276689771687,0.23122971240007065,18.5,1915,0,16.799999237060547,-15.0,-54.0,2779096485
-1.1876334999084472,2.035359593963623,11.188610174560546,0.012411202779733429,-0.4609400914086923,0.18028371407097993,18.5,1916,0,17.549999237060547,-15.600000381469727,-54.599998474121094,2779096485
-1.1764194862365722,1.9666093475341797,11.294835521697998,0.018360558140225067,-0.4197815096240039,0.12842412499411865,18.5,1917,0,17.549999237060547,-15.600000381469727,-54.599998474121094,2779096485
-1.1915365798950195,1.8437343856811523,11.343515327453613,0.023845811078640748,-0.37580795992854416,0.07429100196818375,18.5,1918,0,17.549999237060547,-15.600000381469727,-54.599998474121094,2779096485
-1.2197214492797852,1.79358277053833,11.27577172088623,0.025046357431895296,-0.33027435710884795,0.024784635277566375,18.5,1919,0,17.549999237060547,-15.600000381469727,-54.599998474121094,2779096485
-1.2657877746582031,1.659281117248535,11.142726881408691,0.017775415047436828,-0.2848821947736739,-0.01916906721000595,18.5,1920,0,17.100000381469727,-14.699999809265137,-54.150001525878906,2779096485
-1.3115565979003905,1.5084715347290039,11.038344940948486,0.0023006049813682557,-0.24152328267987228,-0.05846977456780106,18.5,1921,0,17.100000381469727,-14.699999809265137,-54.150001525878906,2779096485
-1.3475631790161133,1.3733681060791014,10.938876832580567,-0.012820896821112976,-0.20019160208342102,-0.09341883012899323,18.5,1922,0,17.100000381469727,-14.699999809265137,-54.150001525878906,2779096485
-1.3207529579162598,1.241482470703125,10.778799935150147,-0.031086340163659517,-0.15944411915757753,-0.12274167163624054,18.5,1923,0,17.100000381469727,-14.699999809265137,-54.150001525878906,2779096485
-1.372884169769287,1.1083856300354002,10.614844930267333,-0.04854849423212586,-0.1259868732181575,-0.14398396979320907,18.5,1924,0,16.799999237060547,-14.699999809265137,-54.599998474121094,2779096485
-1.3566614433288573,1.0104272384643553,10.407159952545166,-0.06817377424953262,-0.09978680777835755,-0.16356360988774826,18.5,1925,0,16.799999237060547,-14.699999809265137,-54.599998474121094,2779096485
-1.3315907760620116,0.9011832054138184,10.233703197479247,-0.08742825569301316,-0.0794955577296341,-0.18258015120527085,18.5,1926,0,16.799999237060547,-14.699999809265137,-54.599998474121094,2779096485
-1.3783822395324707,0.7984179000854492,10.071369463348388,-0.10673158616845276,-0.06861611198774949,-0.19278018461032898,18.5,1927,0,16.799999237060547,-14.699999809265137,-54.599998474121094,2779096485
-1.485024680328369,0.6321510292053223,9.902151795959472,-0.12115010665862229,-0.06374835954914414,-0.1991752466077933,18.5,1928,0,17.25,-14.25,-54.75,2779096485
-1.5914230407714842,0.4614603935241699,9.717451643371582,-0.13300681267160094,-0.06582022562605744,-0.19124882704664092,18.600000381469727,1929,0,17.25,-14.25,-54.75,2779096485
-1.667887183380127,0.29023079223632814,9.52774094619751,-0.13961385563247605,-0.074308672041895,-0.17752420648952835,18.600000381469727,1930,0,17.25,-14.25,-54.75,2779096485
-1.783851594543457,0.15279916076660155,9.326362467956542,-0.14647863932187774,-0.08954011579132187,-0.1523682666374321,18.600000381469727,1931,0,17.25,-14.25,-54.75,2779096485
-1.8588609748840332,0.020865000915527343,9.133800415802002,-0.15054473367255936,-0.11042010420028046,-0.12475860335814576,18.600000381469727,1932,0,16.350000381469727,-14.399999618530273,-54.75,2779096485
-1.9139624603271483,-0.1139728889465332,8.989814092254639,-0.15494831711006196,-0.13833742916238387,-0.08979004014210282,18.5,1933,0,16.350000381469727,-14.399999618530273,-54.75,2779096485
-1.9332814071655273,-0.20832566528320312,8.899702534484863,-0.15863921867104888,-0.16687480460102386,-0.04649114238305374,18.5,1934,0,16.350000381469727,-14.399999618530273,-54.75,2779096485
-1.9415480262756346,-0.26385680541992185,8.794138473510742,-0.16074324241790391,-0.200541594711474,-0.005081011719330597,18.5,1935,0,16.350000381469727,-14.399999618530273,-54.75,2779096485
-1.9851092475891112,-0.23820261077880858,8.747461293029785,-0.1616512671590344,-0.23423494985361512,0.038405099605161745,18.5,1936,0,16.649999618530273,-14.850000381469727,-54.599998474121094,2779096485
-2.029165246582031,-0.17564667434692383,8.703742385864258,-0.16316464838548797,-0.27050952725925764,0.08461846097262375,18.5,1937,0,16.649999618530273,-14.850000381469727,-54.599998474121094,2779096485
-2.0040714012145995,-0.10131162719726562,8.666569759368896,-0.1615818052603798,-0.31226851870757827,0.1344640078573427,18.5,1938,0,16.649999618530273,-14.850000381469727,-54.599998474121094,2779096485
-1.8883146583557129,0.008192823028564453,8.64584203262329,-0.16419495216722915,-0.3518199826539893,0.18051386445080292,18.5,1939,0,16.200000762939453,-14.850000381469727,-54.29999923706055,2779096485
-1.8000564514160156,0.11496861267089843,8.661864978790282,-0.169510075718477,-0.3923191923889163,0.22087265901822054,18.5,1940,0,16.200000762939453,-14.850000381469727,-54.29999923706055,2779096485
-1.7092160919189452,0.27720410156249997,8.719134027862548,-0.17675278193767197,-0.4298945575305551,0.2569726861893161,18.5,1941,0,16.200000762939453,-14.850000381469727,-54.29999923706055,2779096485
-1.6421842025756836,0.4269674919128418,8.959127520751952,-0.18065762188545745,-0.466817208525112,0.29115945849903074,18.600000381469727,1942,0,16.200000762939453,-14.850000381469727,-54.29999923706055,2779096485
-1.5112201210021972,0.5924415969848633,9.15481259765625,-0.18232169808115753,-0.49764643380309675,0.3166241452720808,18.600000381469727,1943,0,15.600000381469727,-13.949999809265137,-55.349998474121094,2779096485
-1.2046547492980957,0.9824819633483887,9.712060903167725,-0.185939915318593,-0.5614008320699712,0.360858824568531,18.5,1946,0,15.899999618530273,-13.800000190734863,-54.900001525878906,2779096485
-1.2046547492980957,0.9824819633483887,9.902356174468993,-0.185939915318593,-0.5614008320699712,0.360858824568531,18.5,1947,0,15.899999618530273,-13.800000190734863,-54.900001525878906,2779096485
-1.1831764259338378,1.0390184349060059,10.051326948547363,-0.19104492877708298,-0.5644288928139007,0.3564543689457774,18.600000381469727,1948,0,15.899999618530273,-13.800000190734863,-54.900001525878906,2779096485
-1.2238245712280273,0.9994700904846191,10.299148358917236,-0.19992112478706864,-0.5598184483401478,0.352670449826456,18.700000762939453,1949,0,15.899999618530273,-13.800000190734863,-54.900001525878906,2779096485
-1.1807605575561524,1.0196117851257325,10.462590866088867,-0.2065100049894342,-0.5447115672919507,0.3463932793117366,18.700000762939453,1950,0,15.899999618530273,-13.800000190734863,-54.900001525878906,2779096485
-1.2164690383911132,0.9709889526367187,10.689019412994384,-0.21852321166279587,-0.5257542813082752,0.3397592984766205,18.700000762939453,1951,0,16.200000762939453,-14.699999809265137,-55.20000076293945,2779096485
-1.2206763870239257,0.9359631790161133,10.830377863311767,-0.228546930489097,-0.4998145265474361,0.3308304850617592,18.700000762939453,1952,0,16.200000762939453,-14.699999809265137,-55.20000076293945,2779096485
-1.3486608116149903,0.8497259155273438,10.987458991241455,-0.24078004768796066,-0.4645397131239441,0.32241976965970415,18.700000762939453,1953,0,16.200000762939453,-14.699999809265137,-55.20000076293945,2779096485
-1.367912953186035,0.7974086807250976,11.064567559814453,-0.25642290987556104,-0.42816329643891676,0.31736689423709685,18.700000762939453,1954,0,16.200000762939453,-14.699999809265137,-55.20000076293945,2779096485
-1.4062975326538085,0.69867109375,11.158194375610352,-0.2715274140525017,-0.3872500783416739,0.31247976730169436,18.799999237060547,1955,0,15.75,-14.850000381469727,-55.20000076293945,2779096485
-1.422345713043213,0.6086925109863282,11.189425296020508,-0.2902552620519409,-0.3408969942285811,0.30966598449759997,18.799999237060547,1956,0,15.75,-14.850000381469727,-55.20000076293945,2779096485
-1.4392840072631836,0.5263161209106445,11.185997965240478,-0.30759072289032013,-0.2936856531968866,0.31272921894138506,18.799999237060547,1957,0,15.75,-14.850000381469727,-55.20000076293945,2779096485
-1.513034555053711,0.4117019462585449,11.207400735473632,-0.32173352631472857,-0.2462759998759822,0.3147813376789511,18.700000762939453,1958,0,15.75,-14.850000381469727,-55.20000076293945,2779096485
-1.5550312545776366,0.30754513244628906,11.11907430267334,-0.3349001081008609,-0.19794631095751358,0.32561083583493455,18.600000381469727,1959,0,15.600000381469727,-13.5,-55.349998474121094,2779096485
-1.5681506576538085,0.210795890045166,11.004388313293457,-0.346287678317338,-0.15559403380142778,0.33709033837160934,18.600000381469727,1960,0,15.600000381469727,-13.5,-55.349998474121094,2779096485
-1.5601323432922363,0.1439569396972656,10.844188347625732,-0.355226611744272,-0.11534607999781754,0.35418198015596464,18.600000381469727,1961,0,15.600000381469727,-13.5,-55.349998474121094,2779096485
-1.5375926124572754,0.11013134307861328,10.653931880950928,-0.3660752047651401,-0.07955954683228622,0.3745552422498935,18.600000381469727,1962,0,15.600000381469727,-13.5,-55.349998474121094,2779096485
-1.4813841857910155,0.11604168395996094,10.468198657989502,-0.37576866498693007,-0.05043975138305389,0.39168858913663285,18.600000381469727,1963,0,13.949999809265137,-14.550000190734863,-55.5,2779096485
-1.436985749053955,0.1638818817138672,10.271546904754638,-0.3823950757866997,-0.025346821921915893,0.40982131384716736,18.600000381469727,1964,0,13.949999809265137,-14.550000190734863,-55.5,2779096485
-1.33599263381958,0.24202041778564454,10.104174214172364,-0.3854114585693295,-0.010167742577062835,0.42245358562746904,18.600000381469727,1965,0,13.949999809265137,-14.550000190734863,-55.5,2779096485
-1.2420905220031737,0.33121004791259767,9.986628495788574,-0.38884370726912276,-0.0018401843794740296,0.4313993700362602,18.600000381469727,1966,0,13.949999809265137,-14.550000190734863,-55.5,2779096485
-1.1692549858093262,0.4357477302551269,9.882982160949707,-0.38638639523238844,0.0006624147112858582,0.4362729814292235,18.600000381469727,1967,0,14.850000381469727,-13.649999618530273,-55.349998474121094,2779096485
-1.0905629417419433,0.5045528938293457,9.793822811889648,-0.3795002796228018,-0.0025187112152441405,0.4349907359521895,18.5,1968,0,14.850000381469727,-13.649999618530273,-55.349998474121094,2779096485
-0.9971492897033691,0.5658479789733887,9.718333757019042,-0.3673352727683489,-0.012212950411647645,0.4332623044691899,18.5,1969,0,14.850000381469727,-13.649999618530273,-55.349998474121094,2779096485
-0.9091043960571289,0.6274301734924316,9.644136544799805,-0.3552421845786392,-0.02438854333136093,0.42348559383229617,18.600000381469727,1970,0,14.850000381469727,-13.649999618530273,-55.349998474121094,2779096485
-0.8291751274108886,0.6765318206787109,9.596594148254395,-0.3415563795941478,-0.03850112653550736,0.4147075219920001,18.600000381469727,1971,0,14.550000190734863,-13.800000190734863,-54.75,2779096485
-0.7531513687133788,0.7174911880493163,9.546164470672608,-0.3308543469849623,-0.05464011565707184,0.4044058490446376,18.600000381469727,1972,0,14.550000190734863,-13.800000190734863,-54.75,2779096485
-0.6737943000793457,0.7354721603393555,9.548063056182862,-0.3212839980416179,-0.07203425259176499,0.3943841275891403,18.600000381469727,1973,0,14.550000190734863,-13.800000190734863,-54.75,2779096485
-0.6048071510314941,0.7612774612426757,9.578299673461913,-0.31000160271376803,-0.08702675752983201,0.38706166635374833,18.5,1974,0,14.550000190734863,-13.800000190734863,-54.75,2779096485
-0.522982250213623,0.7883643615722656,9.62808742980957,-0.2994897863841342,-0.09802592567769837,0.3797303101603766,18.5,1975,0,14.699999809265137,-13.949999809265137,-56.099998474121094,2779096485
-0.4138302192687988,0.8183783195495605,9.685311730194092,-0.2959680022091078,-0.1074135684557135,0.37277973273704756,18.5,1976,0,14.699999809265137,-13.949999809265137,-56.099998474121094,2779096485
-0.3321124984741211,0.8464176155090332,9.749759672546386,-0.29116137597500247,-0.11497491523924393,0.36300961342380644,18.5,1977,0,14.699999809265137,-13.949999809265137,-56.099998474121094,2779096485
-0.2852394630432129,0.8450871177673339,9.817561373901366,-0.2877537748309285,-0.11606322266912841,0.3515935074364453,18.5,1978,0,14.699999809265137,-13.949999809265137,-56.099998474121094,2779096485
-0.2812981018066406,0.8139563491821289,9.881130193328858,-0.28146314869489397,-0.11605078570692322,0.3416126055822757,18.5,1979,0,15.0,-13.649999618530273,-54.900001525878906,2779096485
-0.3132658241271973,0.7660232894897461,9.93036223602295,-0.2760180828570514,-0.12023365967060226,0.3311982076846475,18.600000381469727,1980,0,15.0,-13.649999618530273,-54.900001525878906,2779096485
-0.36175654144287106,0.6963935089111328,9.993234142303466,-0.2688407838737793,-0.12111264929814773,0.31967923710088897,18.600000381469727,1981,0,15.0,-13.649999618530273,-54.900001525878906,2779096485
-0.42520266647338867,0.6243547386169433,10.045910039520264,-0.25774289900288483,-0.12356271087886414,0.3151224486648297,18.600000381469727,1982,0,14.100000381469727,-13.800000190734863,-55.04999923706055,2779096485
-0.48700067901611327,0.5375852760314941,10.09150962524414,-0.24200833752168044,-0.12898098531632463,0.30920192202294006,18.600000381469727,1983,0,14.100000381469727,-13.800000190734863,-55.04999923706055,2779096485
-0.526432347869873,0.4549827499389648,10.119457068634032,-0.22321670015666947,-0.13500852442798095,0.30517417719169204,18.600000381469727,1984,0,14.100000381469727,-13.800000190734863,-55.04999923706055,2779096485
-0.5678834648132324,0.37083820724487304,10.129898391723632,-0.19996432125965286,-0.14355500778147523,0.2998722629193602,18.600000381469727,1985,0,14.100000381469727,-13.800000190734863,-55.04999923706055,2779096485
-0.5972363609313964,0.28450841827392576,10.118989394378662,-0.17076475747841813,-0.15429210090617065,0.2990846729797981,18.700000762939453,1986,0,13.800000190734863,-13.800000190734863,-54.75,2779096485
-0.6384741645812988,0.2340491325378418,10.054166677093505,-0.1408704615262915,-0.16496761508898392,0.2986644061889636,18.899999618530273,1987,0,13.800000190734863,-13.800000190734863,-54.75,2779096485
-0.6790919166564942,0.19089229431152344,9.969438494873046,-0.11542290553683564,-0.17506197426271394,0.2989745379536748,18.899999618530273,1988,0,13.800000190734863,-13.800000190734863,-54.75,2779096485
-0.7258712303161621,0.15900393829345702,9.860638696289062,-0.09024103981170563,-0.1872538657281865,0.2974812436196051,18.899999618530273,1989,0,13.800000190734863,-13.800000190734863,-54.75,2779096485
-0.7750700386047363,0.11745244522094726,9.755219236755371,-0.06441814455869614,-0.20082863021179018,0.2939929087476402,18.700000762939453,1990,0,14.100000381469727,-12.600000381469727,-55.5,2779096485
-0.8290389373779297,0.04346992950439453,9.64550364151001,-0.039948987341692506,-0.21332988112526308,0.29114364598016707,18.600000381469727,1991,0,14.100000381469727,-12.600000381469727,-55.5,2779096485
-0.9215571670532227,-0.052829171752929685,9.52332566757202,-0.020518211293162995,-0.22973901464804597,0.29040944576219146,18.600000381469727,1992,0,14.100000381469727,-12.600000381469727,-55.5,2779096485
-1.0506463272094726,-0.14958910598754882,9.410929225921631,-0.004948366324248047,-0.24663966783613878,0.2894168723149347,18.600000381469727,1993,0,14.100000381469727,-12.600000381469727,-55.5,2779096485
-1.1918009971618653,-0.24916375885009764,9.335893938446045,0.004697350077427673,-0.26339462613989734,0.2925199409904509,18.5,1994,0,14.699999809265137,-13.649999618530273,-55.04999923706055,2779096485
-1.3289203971862793,-0.3681368743896484,9.30084435119629,0.01172522575086502,-0.27914215721552127,0.2972587032225447,18.5,1995,0,14.699999809265137,-13.649999618530273,-55.04999923706055,2779096485
-1.4533791709899901,-0.5056953872680664,9.300650253295899,0.013695898364953461,-0.2920797470968968,0.3026403725110736,18.600000381469727,1996,0,14.699999809265137,-13.649999618530273,-55.04999923706055,2779096485
-1.5747554069519043,-0.6362322814941406,9.367028781890868,0.01667295957435852,-0.30205472341768175,0.3146143774534587,18.600000381469727,1997,0,14.699999809265137,-13.649999618530273,-55.04999923706055,2779096485
-1.6770418601989745,-0.7546862075805664,9.453016282653808,0.017094897498765565,-0.3078975523353023,0.3295694516626619,18.600000381469727,1998,0,13.5,-13.649999618530273,-55.650001525878906,2779096485
-1.7361212310791014,-0.8496021369934081,9.570528205871582,0.017538739922987975,-0.3129502812840506,0.34769291523056933,18.600000381469727,1999,0,13.5,-13.649999618530273,-55.650001525878906,2779096485
-1.7719983139038085,-0.9131415351867676,9.695986254882813,0.022514483543053895,-0.31486311003966005,0.36515584827364916,18.600000381469727,2000,0,13.5,-13.649999618530273,-55.650001525878906,2779096485
-1.8069133934020996,-0.9504021263122558,9.81916432647705,0.0352579622718103,-0.316189803674982,0.3873881499274402,18.600000381469727,2001,0,13.5,-13.649999618530273,-55.650001525878906,2779096485
-1.8130724502563476,-0.9815908401489257,9.939067407226561,0.04974376752645828,-0.3160797751753015,0.40951881203892687,18.600000381469727,2002,0,14.25,-13.050000190734863,-56.25,2779096485
-1.7917228775024414,-0.9862983497619628,10.027860878753662,0.06814874053545791,-0.31279935994611296,0.43470295476677323,18.600000381469727,2003,0,14.25,-13.050000190734863,-56.25,2779096485
-1.7394627655029296,-0.9666580497741699,10.07446934738159,0.08759496957610642,-0.3067625996392456,0.45670502614590913,18.600000381469727,2004,0,14.25,-13.050000190734863,-56.25,2779096485
-1.666769139099121,-0.9348957527160644,10.073110512542724,0.10634424936427078,-0.3009279799156288,0.47608468281766586,18.600000381469727,2005,0,14.25,-13.050000190734863,-56.25,2779096485
-1.5924506156921385,-0.8979924407958985,10.032852693939208,0.12491499749208587,-0.29366076595667084,0.4950977753416005,18.600000381469727,2006,0,12.300000190734863,-14.100000381469727,-55.79999923706055,2779096485
-1.537881890106201,-0.8469938529968262,9.974515283966063,0.14077493393864685,-0.2842004987762283,0.508408806984266,18.600000381469727,2007,0,12.300000190734863,-14.100000381469727,-55.79999923706055,2779096485
-1.4851480476379395,-0.8094840599060058,9.914228820037842,0.15436927265612807,-0.276105927225004,0.5196501696579026,18.600000381469727,2008,0,12.300000190734863,-14.100000381469727,-55.79999923706055,2779096485
-1.4182658813476563,-0.7921406349182128,9.870501202392578,0.16565857222905656,-0.26839943816306167,0.5274657484552475,18.799999237060547,2009,0,12.300000190734863,-14.100000381469727,-55.79999923706055,2779096485
-1.3508865074157714,-0.7999285514831542,9.822584030914307,0.17544698745886078,-0.26326428437914184,0.5337538112987504,18.799999237060547,2010,0,13.800000190734863,-13.5,-54.900001525878906,2779096485
-1.3049487083435058,-0.825211971282959,9.785825058746338,0.1859920600123784,-0.25675207658403276,0.5385832608232409,18.799999237060547,2011,0,13.800000190734863,-13.5,-54.900001525878906,2779096485
-1.2606982376098632,-0.8747840965270995,9.789780700683593,0.19566643202718642,-0.251559471757892,0.5466796832714103,18.799999237060547,2012,0,13.800000190734863,-13.5,-54.900001525878906,2779096485
-1.21402763671875,-0.9307700508117676,9.803051471710205,0.20358090065302917,-0.24220049125091186,0.5595660272758621,18.799999237060547,2013,0,13.800000190734863,-13.5,-54.900001525878906,2779096485
-1.1633395606994628,-0.9738419525146484,9.791103198242187,0.2116745134662677,-0.2338640780427594,0.5682001219707152,18.799999237060547,2014,0,13.050000190734863,-13.949999809265137,-55.5,2779096485
-1.088641851043701,-0.994029891204834,9.743307823944091,0.2195914921214206,-0.22557132736037872,0.5823577192548773,18.799999237060547,2015,0,13.050000190734863,-13.949999809265137,-55.5,2779096485
-0.9941115005493164,-0.9923254409790039,9.667663101959228,0.22121739190315673,-0.2155895266893474,0.5953542715223821,18.799999237060547,2016,0,13.050000190734863,-13.949999809265137,-55.5,2779096485
-0.8706323753356934,-0.9863324066162109,9.584601724243164,0.2183886887391577,-0.20549728472866943,0.6113536177931479,18.799999237060547,2017,0,13.050000190734863,-13.949999809265137,-55.5,2779096485
-0.7352919692993164,-0.9514441314697265,9.506769587707518,0.21214026704820815,-0.19339903000648057,0.6231015403342471,18.799999237060547,2018,0,12.449999809265137,-13.5,-55.79999923706055,2779096485
-0.5935644264221192,-0.8820644874572754,9.434242469787597,0.20738366829483612,-0.18604894513287154,0.636761685761812,18.700000762939453,2019,0,12.449999809265137,-13.5,-55.79999923706055,2779096485
-0.4289209571838379,-0.7868358406066894,9.380796723175049,0.19949596443776474,-0.17708618973015045,0.6470787784117801,18.700000762939453,2020,0,12.449999809265137,-13.5,-55.79999923706055,2779096485
-0.24795763778686522,-0.6776282943725586,9.315746187591552,0.19476216234316712,-0.1718026379534085,0.657035685184693,18.700000762939453,2021,0,12.449999809265137,-14.550000190734863,-55.5,2779096485
-0.058801196289062496,-0.5123884002685547,9.248488423919678,0.1907315346400589,-0.16771303454836578,0.6636444924897782,18.700000762939453,2022,0,12.449999809265137,-14.550000190734863,-55.5,2779096485
0.148988045501709,-0.3370985939025879,9.190842020416259,0.18888989217989807,-0.165183224609355,0.6659054230290796,18.700000762939453,2023,0,12.449999809265137,-14.550000190734863,-55.5,2779096485
0.36098863601684567,-0.14912124481201172,9.143364746856689,0.1874897818517299,-0.16385368804958894,0.6640948929481398,18.700000762939453,2024,0,12.449999809265137,-14.550000190734863,-55.5,2779096485
0.5675494758605957,0.049174022674560544,9.112603818511962,0.1869622695645349,-0.1615816787602289,0.6568458350897887,18.700000762939453,2025,0,12.300000190734863,-14.399999618530273,-55.650001525878906,2779096485
0.7681088325500488,0.23772159042358398,9.085691688537597,0.18634826446363129,-0.15924200520593765,0.6469712799151178,18.700000762939453,2026,0,12.300000190734863,-14.399999618530273,-55.650001525878906,2779096485
0.9526024757385254,0.4031436195373535,9.054847094726561,0.18670635975924516,-0.15993019265849565,0.6290462351628632,18.700000762939453,2027,0,12.300000190734863,-14.399999618530273,-55.650001525878906,2779096485
1.1006411911010743,0.5466154640197753,9.026254739379883,0.18537760883199525,-0.15660532261311647,0.6019667340160382,18.700000762939453,2028,0,12.300000190734863,-14.399999618530273,-55.650001525878906,2779096485
1.199316608428955,0.65782021484375,9.006473239898682,0.18642791295338548,-0.155414203850056,0.5737110344660574,18.600000381469727,2029,0,13.800000190734863,-14.550000190734863,-55.79999923706055,2779096485
1.2491916938781737,0.7434977272033692,8.99417748184204,0.1838906861107898,-0.14939432132648103,0.5427352754080008,18.600000381469727,2030,0,13.800000190734863,-14.550000190734863,-55.79999923706055,2779096485
1.2597468139648438,0.8108711944580078,8.980317687988281,0.18086480250103637,-0.1447750085263591,0.5094152421849014,18.799999237060547,2031,0,13.800000190734863,-14.550000190734863,-55.79999923706055,2779096485
1.2395905395507811,0.8511287139892578,8.966545970916748,0.1722540970182962,-0.13575265157885164,0.4741994577265654,18.899999618530273,2032,0,13.800000190734863,-14.550000190734863,-55.79999923706055,2779096485
1.1870396919250488,0.8578571296691895,8.94321579208374,0.16045588733825913,-0.12658479948409027,0.43446272432229355,18.899999618530273,2033,0,12.300000190734863,-15.149999618530273,-55.79999923706055,2779096485
1.096845590209961,0.82508628616333,8.929254425811767,0.14601519603216706,-0.11525533278429673,0.3992528787131476,18.899999618530273,2034,0,12.300000190734863,-15.149999618530273,-55.79999923706055,2779096485
0.9645135894775391,0.7754816741943359,8.940447953033447,0.12541216971677063,-0.10240110650237046,0.36387359613871245,18.600000381469727,2035,0,12.300000190734863,-15.149999618530273,-55.79999923706055,2779096485
0.8048356170654296,0.699625732421875,8.94452378463745,0.10425734308520462,-0.08881934456305068,0.3272321949270433,18.600000381469727,2036,0,12.300000190734863,-15.149999618530273,-55.79999923706055,2779096485
0.6382495239257813,0.5958687408447265,8.973792304992676,0.08529377869930237,-0.0749275374117546,0.2930275261749263,18.600000381469727,2037,0,11.850000381469727,-14.699999809265137,-55.95000076293945,2779096485
0.4596570251464844,0.4494544364929199,8.985954003906249,0.06642277913435242,-0.0617065272712178,0.2633521686945105,18.600000381469727,2038,0,11.850000381469727,-14.699999809265137,-55.95000076293945,2779096485
0.26773382873535156,0.2728180572509766,8.998801961517334,0.05095705044753861,-0.05380712547913864,0.23332008078853012,18.600000381469727,2039,0,11.850000381469727,-14.699999809265137,-55.95000076293945,2779096485
0.06406352233886718,0.0797985366821289,9.010213624572753,0.03705860536727112,-0.045477516647524564,0.211610391205562,18.600000381469727,2040,0,11.850000381469727,-14.699999809265137,-55.95000076293945,2779096485
-0.1449305320739746,-0.12248515853881836,9.050019470214844,0.022732789514010164,-0.04088846401508072,0.1933557070337454,18.600000381469727,2041,0,11.550000190734863,-14.399999618530273,-55.79999923706055,2779096485
-0.3458820472717285,-0.3040323043823242,9.119971875,0.014002801046865082,-0.039493446982462314,0.1788047874908925,18.600000381469727,2042,0,11.550000190734863,-14.399999618530273,-55.79999923706055,2779096485
-0.565133046722412,-0.4829421188354492,9.185975142669678,0.011642301572992553,-0.037321292917488556,0.1705665450577484,18.600000381469727,2043,0,11.550000190734863,-14.399999618530273,-55.79999923706055,2779096485
-0.7941181755065918,-0.6797953346252441,9.218198197937012,0.011209897425573425,-0.038422057283286286,0.16776528576859406,18.600000381469727,2044,0,11.550000190734863,-14.399999618530273,-55.79999923706055,2779096485
-0.9868784751892089,-0.8916140518188477,9.19407843093872,0.01820478319123413,-0.0422474418204953,0.17092318227267547,18.600000381469727,2045,0,13.199999809265137,-15.75,-55.650001525878906,2779096485
-1.164890549468994,-1.1074878150939942,9.149097700500487,0.025463801271993713,-0.04910545442287201,0.1773496562549814,18.600000381469727,2046,0,13.199999809265137,-15.75,-55.650001525878906,2779096485
-1.3697814071655272,-1.3101431823730467,9.049756324005127,0.03580327113286743,-0.06031182316002533,0.19373302369439485,18.5,2047,0,13.199999809265137,-15.75,-55.650001525878906,2779096485
-1.5617624366760254,-1.4822172142028809,8.92806669769287,0.05010517845760651,-0.07304153334604065,0.21418486901364914,18.399999618530273,2048,0,13.199999809265137,-15.75,-55.650001525878906,2779096485
-1.650214330291748,-1.6101887413024902,8.851238883209229,0.06019687447026474,-0.09452322305175125,0.24111446082374374,18.399999618530273,2049,0,11.699999809265137,-14.699999809265137,-55.79999923706055,2779096485
-1.6632821807861327,-1.6778936180114745,8.809671090698242,0.07372264344805038,-0.11737560847159226,0.26994067605432603,18.5,2050,0,11.699999809265137,-14.699999809265137,-55.79999923706055,2779096485
-1.6449367515563964,-1.674904652404785,8.76916459350586,0.09223852379988419,-0.14445998320317857,0.2964104930790863,18.600000381469727,2051,0,11.699999809265137,-14.699999809265137,-55.79999923706055,2779096485
-1.5923610061645508,-1.622677774810791,8.750330293273926,0.11266745261811585,-0.1777875465142084,0.3220782924891782,18.600000381469727,2052,0,11.699999809265137,-14.699999809265137,-55.79999923706055,2779096485
-1.5019846572875977,-1.5559229011535645,8.764768305969238,0.13553988498292466,-0.21015444104762132,0.34429383620192505,18.600000381469727,2053,0,12.0,-15.149999618530273,-55.79999923706055,2779096485
-1.377047255706787,-1.4573221397399903,8.757798277282715,0.1576344079986673,-0.2447988842454236,0.3625364962015025,18.600000381469727,2054,0,12.0,-15.149999618530273,-55.79999923706055,2779096485
-1.2142076782226563,-1.3176606254577636,8.75588369140625,0.17718988656438278,-0.27676882130528274,0.3789678538034294,18.600000381469727,2055,0,12.0,-15.149999618530273,-55.79999923706055,2779096485
-1.0295498817443847,-1.1709715858459473,8.762068356323242,0.19308053591600402,-0.3086242357811528,0.3880781216979163,18.600000381469727,2056,0,12.0,-15.149999618530273,-55.79999923706055,2779096485
-0.8121184379577636,-1.0214982582092285,8.800367588043212,0.19803866938348283,-0.33369747782406767,0.39394325458951296,18.600000381469727,2057,0,11.399999618530273,-15.0,-55.650001525878906,2779096485
-0.5841742301940918,-0.8786365211486816,8.940907253265381,0.19582042265825927,-0.35226927124260343,0.3947404718563495,18.600000381469727,2058,0,11.399999618530273,-15.0,-55.650001525878906,2779096485
-0.3606246276855469,-0.7328197257995606,9.165932179260254,0.19041230818028762,-0.36302844197258394,0.3915352176905092,18.600000381469727,2059,0,11.399999618530273,-15.0,-55.650001525878906,2779096485
-0.13673479309082032,-0.5921703758239746,9.459134254455567,0.18512145268430633,-0.3657202986049097,0.3864955582047206,18.700000762939453,2060,0,11.25,-14.850000381469727,-55.79999923706055,2779096485
0.09405164794921875,-0.4607428443908691,9.758659240722656,0.18458426646451814,-0.3594449590134271,0.37506782086137846,18.700000762939453,2061,0,11.25,-14.850000381469727,-55.79999923706055,2779096485
0.30302058029174805,-0.33083688049316406,10.012856273651122,0.18472744466163957,-0.34653898751187623,0.36234692573851074,18.700000762939453,2062,0,11.25,-14.850000381469727,-55.79999923706055,2779096485
0.5005714195251465,-0.19388589553833008,10.196236096954346,0.18830772516960756,-0.32634874450470264,0.34813639147014436,18.600000381469727,2063,0,11.25,-14.850000381469727,-55.79999923706055,2779096485
0.682660147857666,-0.06805778198242188,10.288506881713866,0.18926611694450807,-0.297199461204503,0.32793015618073473,18.5,2064,0,10.800000190734863,-14.850000381469727,-55.650001525878906,2779096485
0.8510303565979004,0.041169876861572266,10.365939756774901,0.18717560208218964,-0.2647369525307106,0.30392187896091016,18.5,2065,0,10.800000190734863,-14.850000381469727,-55.650001525878906,2779096485
0.9602578659057617,0.1281440544128418,10.328388841247559,0.1781891245722217,-0.22776638461056978,0.2800137698868979,18.600000381469727,2066,0,10.800000190734863,-14.850000381469727,-55.650001525878906,2779096485
1.0092501274108887,0.1788093635559082,10.314332893371581,0.16527039652913697,-0.18706958829782486,0.2503123733491028,18.600000381469727,2067,0,10.800000190734863,-14.850000381469727,-55.650001525878906,2779096485
1.0445038688659667,0.20941690521240233,10.27260935897827,0.1486146476332048,-0.1454283684900009,0.2221616422927661,18.600000381469727,2068,0,10.350000381469727,-15.600000381469727,-56.25,2779096485
1.0356572364807128,0.2129107795715332,10.227338304138183,0.13069612762557603,-0.10378696891880462,0.1923817757139911,18.600000381469727,2069,0,10.350000381469727,-15.600000381469727,-56.25,2779096485
1.0357346588134766,0.2090646728515625,10.19667917251587,0.11050720954103561,-0.062482465881090854,0.1655081435759172,18.600000381469727,2070,0,10.350000381469727,-15.600000381469727,-56.25,2779096485
1.0324036666870118,0.1983532501220703,10.154480262756348,0.09113931738331345,-0.02317261056501419,0.14036165794562577,18.600000381469727,2071,0,10.350000381469727,-15.600000381469727,-56.25,2779096485
0.9859403602600098,0.17551788635253907,10.100998552703857,0.07263201241013077,0.017019543356239623,0.11547973073620468,18.600000381469727,2072,0,11.399999618530273,-14.850000381469727,-56.25,2779096485
0.9424846740722655,0.13711472702026367,10.011197805786132,0.05436455838097504,0.05755675639966095,0.09321944591745193,18.600000381469727,2073,0,11.399999618530273,-14.850000381469727,-56.25,2779096485
0.8911588264465332,0.11351414947509765,9.907095161437988,0.03199628238076172,0.09675909990326996,0.0727888259919397,18.600000381469727,2074,0,11.399999618530273,-14.850000381469727,-56.25,2779096485
0.8290144882202148,0.1035711181640625,9.8039049118042,0.010241398954405517,0.13549439153391601,0.050094299444628294,18.600000381469727,2075,0,11.399999618530273,-14.850000381469727,-56.25,2779096485
0.7667825965881347,0.11608172225952149,9.695775633239746,-0.010567636185698242,0.1696506440177481,0.03238983100814362,18.5,2076,0,10.949999809265137,-15.300000190734863,-55.20000076293945,2779096485
0.6904624946594238,0.11781155624389648,9.573196566009521,-0.028353996825140077,0.19826028433207077,0.00881263301310501,18.5,2077,0,10.949999809265137,-15.300000190734863,-55.20000076293945,2779096485
0.6217420806884766,0.09643641281127929,9.443794090270996,-0.04880994341244491,0.22426416801151824,-0.010669275728002624,18.5,2078,0,10.949999809265137,-15.300000190734863,-55.20000076293945,2779096485
0.5594895904541015,0.08261635818481446,9.317600659942627,-0.06321712549435135,0.24345006639949784,-0.031415426977299044,18.700000762939453,2079,0,10.949999809265137,-15.300000190734863,-55.20000076293945,2779096485
0.48987498779296873,0.06300925521850585,9.2215606300354,-0.07634774129020935,0.25979182194716477,-0.0512542459073436,18.700000762939453,2080,0,11.100000381469727,-15.75,-55.79999923706055,2779096485
0.42922447814941406,0.04609698028564453,9.162391014099121,-0.0861513698276361,0.27076485116911164,-0.06855119743662491,18.700000762939453,2081,0,11.100000381469727,-15.75,-55.79999923706055,2779096485
0.33174815368652344,0.04204728012084961,9.11225225906372,-0.08705928804232377,0.27888256559004976,-0.09139351610761459,18.700000762939453,2082,0,11.100000381469727,-15.75,-55.79999923706055,2779096485
0.2308600128173828,0.029916871643066407,9.082040240478515,-0.08349546586977936,0.28149799615751814,-0.10852779510072906,18.600000381469727,2083,0,11.100000381469727,-15.75,-55.79999923706055,2779096485
0.12963795776367187,-0.02482049331665039,9.051244245910643,-0.07329312217249145,0.2833937939980736,-0.12667850946430342,18.600000381469727,2084,0,10.949999809265137,-15.149999618530273,-55.349998474121094,2779096485
0.021061229705810546,-0.08771800765991211,9.02496831741333,-0.05409241660895279,0.27774136112337705,-0.14374889922330597,18.5,2085,0,10.949999809265137,-15.149999618530273,-55.349998474121094,2779096485
-0.08992329177856445,-0.14279687576293945,8.973022119140625,-0.0316049441770694,0.2687046297639847,-0.16036951436679872,18.200000762939453,2086,0,10.949999809265137,-15.149999618530273,-55.349998474121094,2779096485
-0.37855221557617186,-0.22376302795410155,8.945098115539551,-0.0007392602240119935,0.2500127078074037,-0.17462664729601854,18.200000762939453,2087,0,10.949999809265137,-15.149999618530273,-55.349998474121094,2779096485
-0.6292961975097656,-0.3932457107543945,9.525965428924561,0.0698234027964183,0.19902371274280914,-0.1752399866066542,18.299999237060547,2088,0,11.550000190734863,-15.300000190734863,-55.650001525878906,2779096485
