accelX,accelY,accelZ,gyroX,gyroY,gyroZ,temp,dataCNT,pad,magX,magY,magZ,pad
0.0,0.0,0.0,0.0,0.0,0.0,0.0,0,0,-25.350000381469727,-6.599999904632568,-79.19999694824219,2779096485
0.46537394104003904,-1.4033773162841796,9.57797974090576,0.3576291358998572,0.18503607174034514,-0.6917016866713713,25.299999237060547,1484,0,-25.350000381469727,-6.599999904632568,-79.19999694824219,2779096485
0.38265103836059566,-1.5108726737976075,9.512060774230957,0.32873317913870775,0.20484423102855087,-0.705163340046354,25.299999237060547,1486,0,-25.799999237060547,-6.300000190734863,-78.75,2779096485
0.2693709503173828,-1.6705390571594239,9.478105791473387,0.307052870880264,0.21296753142983704,-0.7041214848034639,25.299999237060547,1487,0,-25.799999237060547,-6.300000190734863,-78.75,2779096485
0.16664400100708007,-1.7474280319213866,9.453208810424805,0.28827831769352846,0.2164071237962857,-0.6981825823501789,25.299999237060547,1488,0,-25.799999237060547,-6.300000190734863,-78.75,2779096485
0.11440269317626953,-1.683272918701172,9.39897156906128,0.2710748431178665,0.2139381204824463,-0.6878830332737712,25.299999237060547,1489,0,-25.799999237060547,-6.300000190734863,-78.75,2779096485
0.1169445083618164,-1.5131299964904785,9.340273889160155,0.2538093634945509,0.20480462316551087,-0.6818153603247632,25.200000762939453,1490,0,-25.799999237060547,-5.849999904632568,-79.80000305175781,2779096485
0.15212822952270508,-1.3365893577575683,9.309014631652833,0.24066834805470763,0.19153560954665527,-0.6794593482772966,25.200000762939453,1491,0,-25.799999237060547,-5.849999904632568,-79.80000305175781,2779096485
0.1746809700012207,-1.2087296836853028,9.310650370025634,0.22885715546444566,0.17493265116106843,-0.68117029610786,25.299999237060547,1492,0,-25.799999237060547,-5.849999904632568,-79.80000305175781,2779096485
0.1758172576904297,-1.136787102508545,9.332799961090087,0.2166293046666014,0.15321782167723175,-0.6837670113108965,25.299999237060547,1493,0,-25.799999237060547,-5.849999904632568,-79.80000305175781,2779096485
0.15683185119628906,-1.1023158462524414,9.363097065734863,0.20909226588575364,0.13382148030136032,-0.6853931441192264,25.299999237060547,1494,0,-25.5,-6.150000095367432,-78.75,2779096485
0.11375897750854491,-1.1195692878723145,9.403598740386963,0.19833850803065156,0.1133770585435936,-0.6853738428593587,25.299999237060547,1495,0,-25.5,-6.150000095367432,-78.75,2779096485
0.05424363403320313,-1.1520440872192383,9.423306369018555,0.1884659235951738,0.09494864971716233,-0.6835526667920344,25.299999237060547,1496,0,-25.5,-6.150000095367432,-78.75,2779096485
0.0010549400329589844,-1.1556395713806151,9.414769239044189,0.18033743668770036,0.07303259844064483,-0.6785567430689472,25.299999237060547,1497,0,-25.5,-6.150000095367432,-78.75,2779096485
-0.033847989654541014,-1.115594953918457,9.403779417419432,0.17132411451412888,0.050190566059470365,-0.6737366079503052,25.299999237060547,1498,0,-25.5,-5.550000190734863,-78.30000305175781,2779096485
-0.056953340911865234,-1.0534055679321288,9.416070203399658,0.16345394757271514,0.02412889178476532,-0.6679130936083577,25.299999237060547,1499,0,-25.5,-5.550000190734863,-78.30000305175781,2779096485
-0.060610060119628904,-0.9943439170837401,9.456312507629395,0.1555066688024681,-0.005352714069776001,-0.6634355608457946,25.299999237060547,1500,0,-25.5,-5.550000190734863,-78.30000305175781,2779096485
-0.06207727127075195,-0.9578923164367675,9.51908366394043,0.14878034951509078,-0.034817222430236515,-0.6570607721619891,25.299999237060547,1501,0,-25.5,-5.550000190734863,-78.30000305175781,2779096485
-0.05252673492431641,-0.9326934967041015,9.614849781036376,0.14111496634429138,-0.05851637322865448,-0.6552279314491706,25.5,1502,0,-25.950000762939453,-5.550000190734863,-78.9000015258789,2779096485
-0.029861692810058592,-0.9253907127380371,9.717581066894532,0.13037451097874284,-0.08299885290891967,-0.6458674129666715,25.5,1503,0,-25.950000762939453,-5.550000190734863,-78.9000015258789,2779096485
-0.016622698211669923,-0.9282313385009765,9.819833463287353,0.12510073300313432,-0.1015986760977359,-0.6383586769301139,25.5,1504,0,-25.950000762939453,-5.550000190734863,-78.9000015258789,2779096485
-0.013106094360351562,-0.9320096305847168,9.912752449798583,0.11568588603477097,-0.1150557621514804,-0.6320326041202141,25.399999618530273,1505,0,-25.049999237060547,-5.099999904632568,-78.0,2779096485
-0.01647278823852539,-0.9151094306945801,9.990481630706787,0.10915112126538391,-0.1289347728138266,-0.622907988445453,25.299999237060547,1506,0,-25.049999237060547,-5.099999904632568,-78.0,2779096485
-0.022629452514648436,-0.8693086814880371,10.058758856964111,0.10839297922937302,-0.1392142616294612,-0.6185228673720805,25.299999237060547,1507,0,-25.049999237060547,-5.099999904632568,-78.0,2779096485
-0.015208086395263672,-0.8098070953369141,10.109616843414306,0.10796302519013992,-0.14787628622605453,-0.6106141778057635,25.299999237060547,1508,0,-25.049999237060547,-5.099999904632568,-78.0,2779096485
0.008324153137207031,-0.7453819946289062,10.173453482055663,0.11065865685328491,-0.1574947518320633,-0.6058836580571869,25.100000381469727,1509,0,-27.0,-5.550000190734863,-79.5,2779096485
0.03672330780029297,-0.6992210876464844,10.260483586120605,0.11617458940724747,-0.16462122438628052,-0.6006259256270359,25.100000381469727,1510,0,-27.0,-5.550000190734863,-79.5,2779096485
0.05612431259155273,-0.6551889396667481,10.338430080413819,0.12194832261086075,-0.16859676460261902,-0.5951081421761284,25.200000762939453,1511,0,-27.0,-5.550000190734863,-79.5,2779096485
0.07909810943603515,-0.6257005264282226,10.415734616088868,0.13237601634013976,-0.16889277495574706,-0.5878056213592613,25.299999237060547,1512,0,-27.0,-5.550000190734863,-79.5,2779096485
0.09741404266357422,-0.5697518440246582,10.469778507232666,0.14519843782096634,-0.16757682717534975,-0.5821501724546511,25.299999237060547,1513,0,-27.149999618530273,-4.800000190734863,-78.75,2779096485
0.12113073501586914,-0.5025937461853027,10.519894981384278,0.16281590078523606,-0.16463941377640076,-0.5762454317000143,25.299999237060547,1514,0,-27.149999618530273,-4.800000190734863,-78.75,2779096485
0.13789377288818358,-0.4251628898620605,10.57511912384033,0.18363120101176117,-0.1590764564558133,-0.5731698601625642,25.200000762939453,1515,0,-27.149999618530273,-4.800000190734863,-78.75,2779096485
0.15493363952636718,-0.3486156425476074,10.622011225128173,0.20821930166013305,-0.15210727685239792,-0.568661754310897,25.200000762939453,1516,0,-27.149999618530273,-4.800000190734863,-78.75,2779096485
0.18354038772583006,-0.2888562934875488,10.650350004577636,0.23375511480750763,-0.14032234968820634,-0.5676147458513332,25.200000762939453,1517,0,-26.700000762939453,-4.650000095367432,-78.44999694824219,2779096485
0.22413006439208982,-0.2560596923828125,10.659086017608642,0.26123339103531784,-0.12769247475286927,-0.567662249986951,25.299999237060547,1518,0,-26.700000762939453,-4.650000095367432,-78.44999694824219,2779096485
0.26226873168945314,-0.24022052612304687,10.666454148864746,0.2880645790438103,-0.11106419636339249,-0.5668178481638252,25.299999237060547,1519,0,-26.700000762939453,-4.650000095367432,-78.44999694824219,2779096485
0.30643411636352536,-0.2299138977050781,10.657198460388184,0.3150426470433139,-0.09202023780263596,-0.5624524477981893,25.299999237060547,1520,0,-26.700000762939453,-4.650000095367432,-78.44999694824219,2779096485
0.35358513946533204,-0.2078806457519531,10.622211154937744,0.34098042440705717,-0.06983446823067153,-0.5609004174466815,25.299999237060547,1521,0,-25.950000762939453,-3.9000000953674316,-78.44999694824219,2779096485
0.38766894760131837,-0.18233766860961914,10.573282035064697,0.3651809951720694,-0.04880747998845352,-0.5593379275300644,25.299999237060547,1522,0,-25.950000762939453,-3.9000000953674316,-78.44999694824219,2779096485
0.41882618408203126,-0.14823756103515626,10.504177275848388,0.38692529919106794,-0.02329497615835968,-0.557420444900482,25.299999237060547,1523,0,-25.950000762939453,-3.9000000953674316,-78.44999694824219,2779096485
0.4329571243286133,-0.10773943786621093,10.426359270477295,0.4095491787330478,-0.00012056795962203979,-0.5563127629738004,25.299999237060547,1524,0,-25.950000762939453,-3.9000000953674316,-78.44999694824219,2779096485
0.43632688369750977,-0.057244263458251954,10.341319604492186,0.4308616245526469,0.02386286862530548,-0.5548411600866603,25.299999237060547,1525,0,-25.799999237060547,-4.199999809265137,-79.3499984741211,2779096485
0.417732177734375,-0.02869875030517578,10.254804914093016,0.45148915194990374,0.0449766559447554,-0.5542622421328773,25.299999237060547,1526,0,-25.799999237060547,-4.199999809265137,-79.3499984741211,2779096485
0.373445369720459,-0.045277484893798826,10.15878062286377,0.47194934627911805,0.06511931492147903,-0.5528640226490701,25.299999237060547,1527,0,-25.799999237060547,-4.199999809265137,-79.3499984741211,2779096485
0.32343256149291993,-0.07099844741821289,10.036425299072265,0.4878428452130861,0.085737388096931,-0.5423984321377397,25.200000762939453,1528,0,-25.799999237060547,-4.199999809265137,-79.3499984741211,2779096485
0.29221423950195313,-0.08163992462158202,9.881900566101073,0.5030635763971018,0.10294268028002442,-0.5355394208499611,25.200000762939453,1529,0,-27.149999618530273,-3.450000047683716,-78.75,2779096485
0.27591334304809567,-0.09572136840820313,9.713202125549316,0.5168934117902576,0.11938157462778443,-0.5246883311155882,25.299999237060547,1530,0,-27.149999618530273,-3.450000047683716,-78.75,2779096485
0.2704187873840332,-0.10602653884887694,9.519209386444091,0.5285658070833612,0.1321734563090204,-0.5130914231230641,25.299999237060547,1531,0,-27.149999618530273,-3.450000047683716,-78.75,2779096485
0.2822010383605957,-0.06374101028442383,9.317919284057616,0.5383946957035538,0.14180458524592546,-0.4995769326324175,25.299999237060547,1532,0,-27.149999618530273,-3.450000047683716,-78.75,2779096485
0.30403884658813474,0.06233009948730468,8.997011827087402,0.5410564985631845,0.15212257671275528,-0.4867650905589485,25.299999237060547,1533,0,-28.049999237060547,-3.9000000953674316,-78.9000015258789,2779096485
0.3104191047668457,0.1252849983215332,8.781809705352783,0.5362311436488418,0.15528456116908188,-0.48033151259448365,25.200000762939453,1534,0,-28.049999237060547,-3.9000000953674316,-78.9000015258789,2779096485
0.32297632675170895,0.16158115615844726,8.584403504943847,0.5275002696806405,0.1560368975139563,-0.47514247640417906,25.200000762939453,1535,0,-28.049999237060547,-3.9000000953674316,-78.9000015258789,2779096485
0.3602034217834473,0.1913788848876953,8.439369269561768,0.5113539968135447,0.15588886570578156,-0.46947176092872483,25.200000762939453,1536,0,-27.299999237060547,-3.1500000953674316,-79.6500015258789,2779096485
0.43234925994873047,0.2284435836791992,8.315297869110108,0.48883784879482084,0.15496075407226714,-0.4597919693811357,25.200000762939453,1537,0,-27.299999237060547,-3.1500000953674316,-79.6500015258789,2779096485
0.5519240341186523,0.2853300445556641,8.232765624999999,0.4591517254857724,0.1599762586871347,-0.4571710127544434,25.200000762939453,1538,0,-27.299999237060547,-3.1500000953674316,-79.6500015258789,2779096485
0.6929737297058105,0.3661404922485351,8.177749263000488,0.4267600102911705,0.16491082317912828,-0.4531821167853299,25.200000762939453,1539,0,-27.299999237060547,-3.1500000953674316,-79.6500015258789,2779096485
0.8482776580810547,0.45124359893798827,8.150558360290526,0.38802203552574466,0.17072433735125123,-0.4558730546270859,25.299999237060547,1540,0,-26.700000762939453,-2.549999952316284,-79.6500015258789,2779096485
0.9922491027832031,0.509243505859375,8.162132793426514,0.35048127816223357,0.1772671581828804,-0.46273788492180634,25.299999237060547,1541,0,-26.700000762939453,-2.549999952316284,-79.6500015258789,2779096485
1.1118876167297362,0.5457840431213379,8.197736524200439,0.3129366458993631,0.18549526063024369,-0.47187236760833834,25.299999237060547,1542,0,-26.700000762939453,-2.549999952316284,-79.6500015258789,2779096485
1.2140455062866211,0.5627788619995117,8.245306024169922,0.27772931697743,0.19213308307520585,-0.4838183028330269,25.200000762939453,1543,0,-26.700000762939453,-2.549999952316284,-79.6500015258789,2779096485
1.293143952178955,0.5722987808227539,8.291486296081542,0.24648252801709855,0.1956712057434076,-0.4967612856155728,25.200000762939453,1544,0,-27.299999237060547,-2.549999952316284,-80.0999984741211,2779096485
1.351763948059082,0.5829648941040039,8.310894254302978,0.22371425188180694,0.19445980700878557,-0.5101698155850761,25.200000762939453,1545,0,-27.299999237060547,-2.549999952316284,-80.0999984741211,2779096485
1.393323740386963,0.5918755279541016,8.35075146560669,0.20347587889616364,0.18829099386017412,-0.5235708221245517,25.200000762939453,1546,0,-27.299999237060547,-2.549999952316284,-80.0999984741211,2779096485
1.3928823097229004,0.5979896865844726,8.378098596191405,0.18980528056139206,0.17602430751600068,-0.5386027618201891,25.200000762939453,1547,0,-27.299999237060547,-2.549999952316284,-80.0999984741211,2779096485
1.3560539527893065,0.5770618804931641,8.401657677459717,0.18270622525040878,0.1574396909769043,-0.5504653800507471,25.200000762939453,1548,0,-26.700000762939453,-1.649999976158142,-79.94999694824219,2779096485
1.2913302658081054,0.5355484069824219,8.406918807220459,0.17936790624161714,0.13590097633474427,-0.5620590456446662,25.200000762939453,1549,0,-26.700000762939453,-1.649999976158142,-79.94999694824219,2779096485
1.213541943359375,0.4797212226867676,8.389930493164062,0.17865871976400818,0.10982663872914292,-0.5692995414401717,25.200000762939453,1550,0,-26.700000762939453,-1.649999976158142,-79.94999694824219,2779096485
1.141624895477295,0.4207007690429687,8.382148782348633,0.18286289235835876,0.07434187500255737,-0.5761618683634847,25.200000762939453,1551,0,-26.700000762939453,-1.649999976158142,-79.94999694824219,2779096485
1.0891243293762207,0.3808867736816406,8.353987838745116,0.18419732247659423,0.03965322998886627,-0.5764963613940999,25.299999237060547,1552,0,-25.950000762939453,-2.0999999046325684,-79.5,2779096485
1.059623691558838,0.37011706924438476,8.31120192489624,0.18556492892388138,0.0007512311330296325,-0.5807989377900526,25.399999618530273,1553,0,-25.950000762939453,-2.0999999046325684,-79.5,2779096485
1.0527510856628417,0.37241469192504884,8.249934503936768,0.1839366389550833,-0.04044476140681458,-0.5834556473541336,25.399999618530273,1554,0,-25.950000762939453,-2.0999999046325684,-79.5,2779096485
1.0506258407592772,0.38759373092651367,8.186416564178467,0.18081872315659195,-0.08171204011064759,-0.582666406254707,25.399999618530273,1555,0,-25.950000762939453,-2.0999999046325684,-79.5,2779096485
1.036478302001953,0.4007751167297363,8.122175355529786,0.17796035237825333,-0.12346535902588532,-0.5853176097332721,25.299999237060547,1556,0,-27.600000381469727,-2.4000000953674316,-78.9000015258789,2779096485
1.0228753364562988,0.43246772994995114,8.076788185882569,0.17137632578694106,-0.16598317161629014,-0.5877702878697415,25.299999237060547,1557,0,-27.600000381469727,-2.4000000953674316,-78.9000015258789,2779096485
1.0185094421386718,0.4557627304077148,8.052337607574463,0.16154496042695177,-0.20744179178522767,-0.5886771275041951,25.299999237060547,1558,0,-27.600000381469727,-2.4000000953674316,-78.9000015258789,2779096485
1.0090381973266602,0.46769395675659176,8.040102822875976,0.1488222876440686,-0.24410355286329055,-0.594842651648883,25.299999237060547,1559,0,-27.600000381469727,-2.4000000953674316,-78.9000015258789,2779096485
0.9889252883911133,0.4433759796142578,8.034866179656982,0.1350484385545442,-0.2795014842231308,-0.599922365077191,25.299999237060547,1560,0,-27.0,-1.0499999523162842,-80.25,2779096485
0.9535810028076172,0.4010663383483887,8.055082941436767,0.11533131276967454,-0.311760474127818,-0.6043585855536282,25.299999237060547,1561,0,-27.0,-1.0499999523162842,-80.25,2779096485
0.8897730003356933,0.34095733642578124,8.08547630996704,0.09493846978396546,-0.3393796116026172,-0.6086250827749611,25.5,1562,0,-27.0,-1.0499999523162842,-80.25,2779096485
0.815169947052002,0.2747326431274414,8.147628685760498,0.07285721596826294,-0.36344371533640885,-0.6122657970655504,25.5,1563,0,-27.0,-1.0499999523162842,-80.25,2779096485
0.7347171150207519,0.22210706481933593,8.236713565826415,0.04952482905474747,-0.38268337628852495,-0.6147430894682258,25.5,1564,0,-27.899999618530273,-1.7999999523162842,-79.94999694824219,2779096485
0.6583169738769531,0.20060522689819335,8.342408209228516,0.025133908852129974,-0.3980572592078758,-0.6160531250310437,25.5,1565,0,-27.899999618530273,-1.7999999523162842,-79.94999694824219,2779096485
0.5990643653869628,0.2058897216796875,8.44786494064331,3.071956296295166e-05,-0.40832443090355347,-0.6180124725526744,25.5,1566,0,-27.899999618530273,-1.7999999523162842,-79.94999694824219,2779096485
0.5396177337646484,0.21806166381835937,8.561148804473877,-0.019932442357522888,-0.415703437706402,-0.6184604695081688,25.5,1567,0,-27.899999618530273,-1.7999999523162842,-79.94999694824219,2779096485
0.4996695671081543,0.2174198547363281,8.669432666015625,-0.038856285696039584,-0.4205532604130916,-0.6169288722599843,25.5,1568,0,-27.149999618530273,-0.75,-78.9000015258789,2779096485
0.476024764251709,0.19860263900756836,8.791627238464356,-0.05432309962099014,-0.4225894135000324,-0.6169604573502956,25.5,1569,0,-27.149999618530273,-0.75,-78.9000015258789,2779096485
0.4475136444091797,0.13532720947265625,8.90271191177368,-0.06959704076321992,-0.42247433165221815,-0.6121086306148994,25.5,1570,0,-27.149999618530273,-0.75,-78.9000015258789,2779096485
0.4075406921386719,0.0367607292175293,9.018010737609863,-0.08200729812077286,-0.4182508910875133,-0.6086397834240773,25.5,1571,0,-27.149999618530273,-0.75,-78.9000015258789,2779096485
0.37601144714355467,-0.051214630126953126,9.129410034942627,-0.09167361407333878,-0.41190546375452425,-0.6004821681923813,25.299999237060547,1572,0,-28.049999237060547,-0.8999999761581421,-79.19999694824219,2779096485
0.3639823120117187,-0.12513142471313476,9.243746109771728,-0.10182419923519669,-0.40306736426367035,-0.5935961457934321,25.299999237060547,1573,0,-28.049999237060547,-0.8999999761581421,-79.19999694824219,2779096485
0.37587974319458006,-0.1485588020324707,9.376452436828613,-0.10517774486741623,-0.3909783973157193,-0.5849341744600602,25.299999237060547,1574,0,-28.049999237060547,-0.8999999761581421,-79.19999694824219,2779096485
0.4171437530517578,-0.14682616424560546,9.509088108062743,-0.1082753474048326,-0.3759799868179756,-0.5823501292458227,25.299999237060547,1575,0,-28.350000381469727,-0.44999998807907104,-79.5,2779096485
0.4637504646301269,-0.1423166778564453,9.627667681884766,-0.10769702200438812,-0.35770123432797285,-0.5784307084911693,25.299999237060547,1576,0,-28.350000381469727,-0.44999998807907104,-79.5,2779096485
0.5121449180603027,-0.15059069900512695,9.732970092010497,-0.10928721545405441,-0.3399750012076291,-0.5781230867557683,25.299999237060547,1577,0,-28.350000381469727,-0.44999998807907104,-79.5,2779096485
0.5549907958984375,-0.17875874557495117,9.80262985458374,-0.10592382278377198,-0.3183971847030327,-0.5770318298749968,25.399999618530273,1578,0,-28.350000381469727,-0.44999998807907104,-79.5,2779096485
0.5899847183227539,-0.2005375244140625,9.87380894165039,-0.105183357479375,-0.30096093653389205,-0.5741070931227494,25.399999618530273,1579,0,-28.649999618530273,-0.8999999761581421,-79.3499984741211,2779096485
0.6427062240600586,-0.2011166778564453,9.923055414581299,-0.10113963368169632,-0.280754814428828,-0.5717472527812423,25.399999618530273,1580,0,-28.649999618530273,-0.8999999761581421,-79.3499984741211,2779096485
0.6936120246887206,-0.20221894607543944,9.95136267929077,-0.09903007055981201,-0.26413199551954836,-0.5738069548699601,25.299999237060547,1581,0,-28.649999618530273,-0.8999999761581421,-79.3499984741211,2779096485
0.7431809349060058,-0.21507722167968749,9.939429284667968,-0.09430054283873458,-0.24830292510980928,-0.5746052440591282,25.200000762939453,1582,0,-28.649999618530273,-0.8999999761581421,-79.3499984741211,2779096485
0.7704202499389649,-0.23420651931762695,9.905668250274658,-0.0860325728701268,-0.24005947619676987,-0.5766550258728537,25.200000762939453,1583,0,-28.799999237060547,-0.6000000238418579,-78.75,2779096485
0.7893653938293457,-0.24673413314819334,9.865874479675293,-0.07774305127054565,-0.23608900264437044,-0.5769687129575957,25.299999237060547,1584,0,-28.799999237060547,-0.6000000238418579,-78.75,2779096485
0.7917835052490234,-0.26353844299316403,9.835663171386718,-0.07021834958336289,-0.23690816435843842,-0.5825144529418541,25.299999237060547,1585,0,-28.799999237060547,-0.6000000238418579,-78.75,2779096485
0.7950015975952148,-0.28577525100708007,9.80720352935791,-0.0603432484606723,-0.24132557625980622,-0.5863363620538644,25.299999237060547,1586,0,-28.799999237060547,-0.6000000238418579,-78.75,2779096485
0.7862526123046875,-0.30280136032104493,9.757233824920654,-0.05063258421835861,-0.24975372870897874,-0.5870649163703678,25.299999237060547,1587,0,-29.100000381469727,-0.44999998807907104,-79.3499984741211,2779096485
0.7827044189453125,-0.2964887672424316,9.702846112823487,-0.04020742715000046,-0.2638411849884129,-0.5888626765939685,25.299999237060547,1588,0,-29.100000381469727,-0.44999998807907104,-79.3499984741211,2779096485
0.7837472839355468,-0.27264321212768555,9.648968879699707,-0.031612614080956114,-0.27890646746066894,-0.5893829450830482,25.299999237060547,1589,0,-29.100000381469727,-0.44999998807907104,-79.3499984741211,2779096485
0.7814560165405273,-0.23746001434326172,9.597309379577636,-0.019257404262756805,-0.29855321255631423,-0.590081645363937,25.299999237060547,1590,0,-29.100000381469727,-0.44999998807907104,-79.3499984741211,2779096485
0.7726235900878906,-0.218739249420166,9.53790439376831,-0.015819110187330628,-0.3180548752946718,-0.5905698360779073,25.200000762939453,1591,0,-29.399999618530273,0.15000000596046448,-79.3499984741211,2779096485
0.7447973457336425,-0.21751152038574217,9.496235066223145,-0.009643193056560211,-0.3423317456243904,-0.5875179000949692,25.200000762939453,1592,0,-29.399999618530273,0.15000000596046448,-79.3499984741211,2779096485
0.6899375480651855,-0.23855383377075196,9.453691513061523,-0.007721256290085297,-0.3671162344280978,-0.5847195569671885,25.200000762939453,1593,0,-29.399999618530273,0.15000000596046448,-79.3499984741211,2779096485
0.626029468536377,-0.27144561462402345,9.426027515411377,-0.006858997971973267,-0.39321730351295714,-0.5828134260616745,25.5,1594,0,-29.399999618530273,0.15000000596046448,-79.3499984741211,2779096485
0.5478641654968261,-0.3064522850036621,9.398822294616698,-0.007466624802109985,-0.4208562282745197,-0.5766463705993704,25.5,1595,0,-29.549999237060547,-0.6000000238418579,-79.19999694824219,2779096485
0.4662550453186035,-0.35301525726318356,9.38499121170044,-0.008705893517348176,-0.4482602822032594,-0.5702076527340371,25.5,1596,0,-29.549999237060547,-0.6000000238418579,-79.19999694824219,2779096485
0.38633086090087887,-0.3864860420227051,9.396417790985106,-0.01140026017898407,-0.4766557111567737,-0.5617726293292993,25.399999618530273,1597,0,-29.549999237060547,-0.6000000238418579,-79.19999694824219,2779096485
0.33654059982299805,-0.38702553100585935,9.422518612670897,-0.017297137950556336,-0.502199567050585,-0.5519758584316324,25.200000762939453,1598,0,-29.549999237060547,-0.6000000238418579,-79.19999694824219,2779096485
0.30572752075195314,-0.3630098411560059,9.456496586608887,-0.021072441743810576,-0.5268518698544948,-0.5390180884472354,25.200000762939453,1599,0,-29.850000381469727,0.15000000596046448,-79.05000305175781,2779096485
0.2971717735290527,-0.3209577011108398,9.50297006149292,-0.024654566490820772,-0.5485222511800435,-0.5290576663017078,25.299999237060547,1600,0,-29.850000381469727,0.15000000596046448,-79.05000305175781,2779096485
0.3030055145263672,-0.2864525001525879,9.566149787902832,-0.03112658718535675,-0.5666116196283295,-0.5195525448309138,25.399999618530273,1601,0,-29.850000381469727,0.15000000596046448,-79.05000305175781,2779096485
0.31876258544921876,-0.272098713684082,9.63153648071289,-0.03841782285718216,-0.5819585114102179,-0.5089695089163181,25.399999618530273,1602,0,-29.850000381469727,0.15000000596046448,-79.05000305175781,2779096485
0.3268294616699219,-0.2947837562561035,9.692709506988525,-0.04477125298919189,-0.5925970009962308,-0.5017573558125191,25.399999618530273,1603,0,-31.200000762939453,1.0499999523162842,-79.05000305175781,2779096485
0.34884936752319334,-0.3274280174255371,9.748350593566894,-0.052266273746229705,-0.6025274625797009,-0.4944535500204349,25.299999237060547,1604,0,-31.200000762939453,1.0499999523162842,-79.05000305175781,2779096485
0.3695157470703125,-0.3531381011962891,9.77643123626709,-0.05941692114507599,-0.6076606123349142,-0.48417893478956164,25.299999237060547,1605,0,-31.200000762939453,1.0499999523162842,-79.05000305175781,2779096485
0.4067121124267578,-0.3555337448120117,9.804469859313965,-0.062139843551304016,-0.6136580444106542,-0.47563909602294147,25.299999237060547,1606,0,-31.200000762939453,1.0499999523162842,-79.05000305175781,2779096485
0.4671963005065918,-0.341815860748291,9.829160667419433,-0.06627109879550934,-0.6180137375541835,-0.4723526420760226,25.200000762939453,1607,0,-30.299999237060547,0.30000001192092896,-78.9000015258789,2779096485
0.5454122589111328,-0.31329696502685545,9.839742741394042,-0.07019783658520752,-0.6184463148070724,-0.4699831810651436,25.200000762939453,1608,0,-30.299999237060547,0.30000001192092896,-78.9000015258789,2779096485
0.6255204849243163,-0.30338324279785156,9.869580508422851,-0.07613562051084229,-0.6175331035597544,-0.4673398072801295,25.200000762939453,1609,0,-30.299999237060547,0.30000001192092896,-78.9000015258789,2779096485
0.6896422889709473,-0.32935938873291015,9.904672900390624,-0.08441632038937318,-0.6118495716216423,-0.4679629669972174,25.299999237060547,1610,0,-30.299999237060547,0.30000001192092896,-78.9000015258789,2779096485
0.7374771034240722,-0.36903708190917967,9.919821733093261,-0.09071701327425903,-0.6054970403064943,-0.46914051695461717,25.299999237060547,1611,0,-30.75,1.0499999523162842,-78.1500015258789,2779096485
0.7972377983093262,-0.3916663848876953,9.93617272415161,-0.09746304661147019,-0.5958329880408394,-0.47114310089624817,25.299999237060547,1612,0,-30.75,1.0499999523162842,-78.1500015258789,2779096485
0.8671091918945312,-0.37048941421508785,9.92966618270874,-0.10766216788386124,-0.5864749862455532,-0.4742164886416194,25.5,1613,0,-30.75,1.0499999523162842,-78.1500015258789,2779096485
0.9398638664245605,-0.32130111083984375,9.92606097869873,-0.11762736374561004,-0.5744667064201743,-0.4777542850725899,25.5,1614,0,-30.75,1.0499999523162842,-78.1500015258789,2779096485
1.0063114059448242,-0.2551007171630859,9.933454306793212,-0.12612071037781966,-0.5634953350159946,-0.4841017896712149,25.5,1615,0,-31.049999237060547,1.5,-77.55000305175781,2779096485
1.1181397972106932,-0.26112175216674804,10.095228925323486,-0.1624484178468442,-0.49385715507211836,-0.5453432824139817,25.299999237060547,1621,0,-31.5,0.6000000238418579,-77.0999984741211,2779096485
1.07802392578125,-0.32419164428710934,10.09845486831665,-0.16080078667076234,-0.489415455141776,-0.5507070486022055,25.299999237060547,1622,0,-30.899999618530273,1.0499999523162842,-78.1500015258789,2779096485
1.0615232864379882,-0.33299397659301755,10.112289839172362,-0.1560944484247174,-0.4870886313396561,-0.5519087201410129,25.299999237060547,1623,0,-30.899999618530273,1.0499999523162842,-78.1500015258789,2779096485
1.0565995849609375,-0.2906074363708496,10.131783593749999,-0.15138856957395735,-0.4843300092592609,-0.5551040140844448,25.299999237060547,1624,0,-30.899999618530273,1.0499999523162842,-78.1500015258789,2779096485
1.0640633071899415,-0.21563125305175782,10.167638283538817,-0.14389203747301132,-0.48282674804488007,-0.5574900066676769,25.299999237060547,1625,0,-30.899999618530273,1.0499999523162842,-78.1500015258789,2779096485
1.0863946968078613,-0.1417784225463867,10.221613313293457,-0.13626172147562454,-0.4810596141736049,-0.5625062170202284,25.100000381469727,1626,0,-32.099998474121094,0.6000000238418579,-78.30000305175781,2779096485
1.1078482345581053,-0.0863278823852539,10.275432040405272,-0.13012495281260925,-0.480975930994827,-0.5694078189114474,25.100000381469727,1627,0,-32.099998474121094,0.6000000238418579,-78.30000305175781,2779096485
1.1005223846435546,-0.0625600486755371,10.321620611572266,-0.1219314648012764,-0.47654456412944307,-0.5767863929506218,25.100000381469727,1628,0,-32.099998474121094,0.6000000238418579,-78.30000305175781,2779096485
1.0627208839416504,-0.07013162384033203,10.366788710784911,-0.11507255338203796,-0.4719170421353174,-0.5845187945697925,25.399999618530273,1629,0,-32.099998474121094,0.6000000238418579,-78.30000305175781,2779096485
1.0005101890563965,-0.09314818801879883,10.393431900024414,-0.10645570931302735,-0.4654781711382224,-0.5867449442254965,25.399999618530273,1630,0,-32.400001525878906,1.350000023841858,-77.69999694824219,2779096485
0.9444916732788086,-0.1209591423034668,10.417571144104004,-0.09968987537324753,-0.4611822060396303,-0.5927620836931676,25.399999618530273,1631,0,-32.400001525878906,1.350000023841858,-77.69999694824219,2779096485
0.8841679000854492,-0.1531073921203613,10.440265196228028,-0.09177294998131608,-0.45960633373862747,-0.593973702138578,25.399999618530273,1632,0,-32.400001525878906,1.350000023841858,-77.69999694824219,2779096485
0.8209434249877929,-0.17135700607299803,10.496266590118408,-0.08244010174235275,-0.4591061521419316,-0.5985357436598514,25.299999237060547,1633,0,-32.400001525878906,1.350000023841858,-77.69999694824219,2779096485
0.7829989677429199,-0.1809244773864746,10.578224727630614,-0.06908946223664719,-0.4584759483638089,-0.5998520509669935,25.299999237060547,1634,0,-32.25,1.2000000476837158,-77.0999984741211,2779096485
0.7613682296752929,-0.1780866554260254,10.660543434143067,-0.0580907867735791,-0.45937211538026734,-0.6010642819394504,25.299999237060547,1635,0,-32.25,1.2000000476837158,-77.0999984741211,2779096485
0.7429805564880371,-0.1776476921081543,10.72979518737793,-0.043005550566992796,-0.4548855411858655,-0.602671812567694,25.299999237060547,1636,0,-32.25,1.2000000476837158,-77.0999984741211,2779096485
0.7354745903015136,-0.16086816787719727,10.79501791381836,-0.030542116540739135,-0.44956314720489166,-0.6005606249175559,25.299999237060547,1637,0,-32.25,1.2000000476837158,-77.0999984741211,2779096485
0.7252563751220703,-0.12841318206787108,10.842992320251465,-0.016432043365902864,-0.4437222424211455,-0.5988198962883073,25.299999237060547,1638,0,-33.150001525878906,1.0499999523162842,-78.0,2779096485
0.7117860107421875,-0.11229901885986328,10.872276654052733,-0.0006738130406730652,-0.4358439994437816,-0.5992655896094746,25.200000762939453,1639,0,-33.150001525878906,1.0499999523162842,-78.0,2779096485
0.6830399322509766,-0.16646175384521483,10.902745239257813,0.014401569469947662,-0.4285343546710475,-0.5958122153844795,25.200000762939453,1640,0,-33.150001525878906,1.0499999523162842,-78.0,2779096485
0.6441040504455566,-0.2330684745788574,10.921516622161866,0.029288626545377654,-0.4168853086426407,-0.5882986856579928,25.200000762939453,1641,0,-33.150001525878906,1.0499999523162842,-78.0,2779096485
0.6360568756103515,-0.2606402084350586,10.92781661682129,0.04637269163648376,-0.4088174685706743,-0.5813231544154213,25.200000762939453,1642,0,-33.29999923706055,1.2000000476837158,-77.4000015258789,2779096485
0.6633177238464355,-0.24458559799194335,10.92014391784668,0.06486396438001435,-0.39962414334026136,-0.5719105445023582,25.200000762939453,1643,0,-33.29999923706055,1.2000000476837158,-77.4000015258789,2779096485
0.7157977661132813,-0.20324184799194336,10.898273286437988,0.08246339108592544,-0.39031598260443345,-0.5657564652923764,25.200000762939453,1644,0,-33.29999923706055,1.2000000476837158,-77.4000015258789,2779096485
0.7717368782043457,-0.15121048889160155,10.858951040649414,0.10419117684837631,-0.3815056598835582,-0.5606997815494364,25.299999237060547,1645,0,-33.29999923706055,1.2000000476837158,-77.4000015258789,2779096485
0.8341235397338866,-0.10836154556274413,10.817007875061035,0.12633134644488922,-0.37233741497253875,-0.5610805802931873,25.299999237060547,1646,0,-33.599998474121094,0.6000000238418579,-76.80000305175781,2779096485
0.8847353149414062,-0.0975131851196289,10.771787251281738,0.1423321707700499,-0.36123959668067107,-0.5605431210993892,25.299999237060547,1647,0,-33.599998474121094,0.6000000238418579,-76.80000305175781,2779096485
0.9116580993652343,-0.1244178009033203,10.731492385101317,0.16022521098412446,-0.34977084665682356,-0.5611862478666128,25.5,1648,0,-33.599998474121094,0.6000000238418579,-76.80000305175781,2779096485
0.9230772766113281,-0.1501954376220703,10.6732428276062,0.17678731647887025,-0.3377091305045395,-0.5614661128057431,25.5,1649,0,-33.599998474121094,0.6000000238418579,-76.80000305175781,2779096485
0.9418491455078125,-0.13156046905517577,10.547532922363281,0.19854841172842635,-0.31967371104166503,-0.5622393283334203,25.5,1650,0,-33.599998474121094,1.649999976158142,-76.80000305175781,2779096485
0.9481940010070801,-0.09818983612060546,10.428467169189453,0.2114545363617389,-0.3081347867235762,-0.5641405323909514,25.299999237060547,1651,0,-33.599998474121094,1.649999976158142,-76.80000305175781,2779096485
0.9443936897277831,-0.06122708358764648,10.302806162261962,0.22224590470907715,-0.2991712523462416,-0.5651153758433728,25.200000762939453,1652,0,-33.599998474121094,1.649999976158142,-76.80000305175781,2779096485
0.944102879333496,-0.013936019897460936,10.19823460998535,0.2313913063560034,-0.2925452743101462,-0.5676152651677422,25.200000762939453,1653,0,-33.75,2.0999999046325684,-76.94999694824219,2779096485
0.9476800453186035,0.04483762435913086,10.090737158966064,0.23762846287561937,-0.28794588861274384,-0.5666530184671903,25.299999237060547,1654,0,-33.75,2.0999999046325684,-76.94999694824219,2779096485
0.9576570587158203,0.09429105529785156,9.984714246368409,0.2412439037676375,-0.2850946018428561,-0.5684832559400612,25.299999237060547,1655,0,-33.75,2.0999999046325684,-76.94999694824219,2779096485
0.9776939659118652,0.13461515579223632,9.883077378082275,0.2419481167919449,-0.28356311777901716,-0.5699391661505858,25.299999237060547,1656,0,-33.75,2.0999999046325684,-76.94999694824219,2779096485
1.001183737182617,0.15725877685546874,9.796507022857666,0.23969941681986556,-0.2850043872615497,-0.5736377642470701,25.299999237060547,1657,0,-33.75,2.0999999046325684,-76.80000305175781,2779096485
1.0244830741882325,0.16138290863037108,9.708759033203124,0.23550915924211502,-0.2839639434940277,-0.5774299591394222,25.299999237060547,1658,0,-33.75,2.0999999046325684,-76.80000305175781,2779096485
1.053780118560791,0.1479453674316406,9.618661008453369,0.2295775738238748,-0.2844439516456049,-0.5804863559171555,25.299999237060547,1659,0,-33.75,2.0999999046325684,-76.80000305175781,2779096485
1.0735421035766601,0.12890459518432618,9.53624895401001,0.2238151523969139,-0.2828698769783255,-0.5846371654215303,25.299999237060547,1660,0,-33.75,2.0999999046325684,-76.80000305175781,2779096485
1.0946975410461426,0.09718009338378907,9.47084181213379,0.2161423190330162,-0.28470308387579146,-0.5884071628663491,25.299999237060547,1661,0,-34.04999923706055,2.0999999046325684,-76.19999694824219,2779096485
1.11528021774292,0.05899813537597656,9.413449283599853,0.20786008117896637,-0.28741185158092303,-0.5895460104354732,25.299999237060547,1662,0,-34.04999923706055,2.0999999046325684,-76.19999694824219,2779096485
1.134875469970703,0.03335825881958008,9.34398488998413,0.19999395558447908,-0.28688270810757155,-0.5875291452925948,25.299999237060547,1663,0,-34.04999923706055,2.0999999046325684,-76.19999694824219,2779096485
1.1761591438293457,0.035595655822753904,9.287857960510253,0.18985875683571335,-0.28781510743041155,-0.5873106129529474,25.200000762939453,1664,0,-34.04999923706055,2.0999999046325684,-76.19999694824219,2779096485
1.2386711166381836,0.09080405960083007,9.232648023986815,0.1785136440646231,-0.288070171682061,-0.5842821394190517,25.200000762939453,1665,0,-34.95000076293945,3.450000047683716,-76.6500015258789,2779096485
1.3102152214050293,0.1717190330505371,9.179706587982178,0.1669241529756839,-0.2886914006073718,-0.5853252263739374,25.299999237060547,1666,0,-34.95000076293945,3.450000047683716,-76.6500015258789,2779096485
1.3719468772888184,0.24256783218383787,9.137528949737549,0.15478903344635894,-0.28896715096264636,-0.5911622429425187,25.5,1667,0,-34.95000076293945,3.450000047683716,-76.6500015258789,2779096485
1.4116524589538573,0.2835955749511719,9.113785976409911,0.14030485271996476,-0.28747309096976853,-0.594195503508441,25.5,1668,0,-34.95000076293945,3.450000047683716,-76.6500015258789,2779096485
1.4199976593017578,0.30045297012329103,9.088224269866943,0.12903934183330995,-0.28393409611631576,-0.5986962923250635,25.5,1669,0,-35.099998474121094,3.299999952316284,-76.6500015258789,2779096485
1.4004456230163573,0.27928261642456054,9.06480171508789,0.11519997898141983,-0.28118593360102995,-0.6019208344349661,25.399999618530273,1670,0,-35.099998474121094,3.299999952316284,-76.6500015258789,2779096485
1.3558567893981932,0.23628574447631834,9.041776290893555,0.0973846631232251,-0.2779192669408745,-0.6049494477848181,25.299999237060547,1671,0,-35.099998474121094,3.299999952316284,-76.6500015258789,2779096485
1.300714817047119,0.2127828514099121,9.029739865875245,0.08481204615093124,-0.27602736397338656,-0.6024675414555859,25.299999237060547,1672,0,-35.099998474121094,3.299999952316284,-76.6500015258789,2779096485
1.2573630210876465,0.21968151397705077,9.049269658660888,0.07151903745081895,-0.27318877382390855,-0.6004405230111214,25.299999237060547,1673,0,-35.54999923706055,3.1500000953674316,-76.19999694824219,2779096485
1.2224919052124024,0.2556357948303223,9.064255422210692,0.0625280192512236,-0.2743526950545235,-0.5980512147923549,25.200000762939453,1674,0,-35.54999923706055,3.1500000953674316,-76.19999694824219,2779096485
1.1952288513183593,0.28312674179077146,9.110606202697754,0.056589802561914676,-0.2732601065932161,-0.59540846019229,25.200000762939453,1675,0,-35.54999923706055,3.1500000953674316,-76.19999694824219,2779096485
1.1781480865478515,0.3081905303955078,9.153323516845703,0.05404401365647324,-0.2718242899329781,-0.5928699616902826,25.200000762939453,1676,0,-35.54999923706055,3.1500000953674316,-76.19999694824219,2779096485
1.166064183807373,0.3245318389892578,9.202281871032714,0.051291277162046664,-0.269801372756564,-0.58870504409013,25.200000762939453,1677,0,-34.95000076293945,4.050000190734863,-76.19999694824219,2779096485
1.1662135330200194,0.33027555923461915,9.246173193359375,0.048216817494344026,-0.26254575686407366,-0.5895347918694583,25.200000762939453,1678,0,-34.95000076293945,4.050000190734863,-76.19999694824219,2779096485
1.1640569602966309,0.34059497299194336,9.290873805236815,0.04364513532999084,-0.25473494512504713,-0.5859251167211605,25.299999237060547,1679,0,-34.95000076293945,4.050000190734863,-76.19999694824219,2779096485
1.1787763999938965,0.35989051742553707,9.315463751220703,0.03926324333941788,-0.24432328362542022,-0.5868511644048444,25.299999237060547,1680,0,-34.95000076293945,4.050000190734863,-76.19999694824219,2779096485
1.1997715347290039,0.3740952163696289,9.335255942535401,0.03582112096995102,-0.23017882238324464,-0.5897864672486439,25.299999237060547,1681,0,-34.04999923706055,4.5,-75.44999694824219,2779096485
1.2084576774597167,0.3826582908630371,9.343309958648682,0.030012147487455444,-0.2147507973993045,-0.5880098525239532,25.299999237060547,1682,0,-34.04999923706055,4.5,-75.44999694824219,2779096485
1.2081410346984862,0.37457649841308593,9.338252646636963,0.025906238878750765,-0.19843095300935562,-0.5890522870043764,25.100000381469727,1683,0,-34.04999923706055,4.5,-75.44999694824219,2779096485
1.2030331047058105,0.36678409576416016,9.324728524017333,0.024200237869878235,-0.18113776985299088,-0.5910991859462418,25.100000381469727,1684,0,-34.04999923706055,4.5,-75.44999694824219,2779096485
1.202256339263916,0.37927369003295897,9.302134810638428,0.02021961101589264,-0.1625470613329428,-0.5878908425135582,25.100000381469727,1685,0,-35.25,3.75,-76.5,2779096485
1.2060444633483887,0.39034657897949215,9.262661084747315,0.018642174107760163,-0.14397905626103163,-0.5867700644923061,25.299999237060547,1686,0,-35.25,3.75,-76.5,2779096485
1.2178728088378905,0.40475191802978516,9.212815869140625,0.015592108995475007,-0.12635420968269043,-0.5822898885423792,25.299999237060547,1687,0,-35.25,3.75,-76.5,2779096485
1.225234846496582,0.4044451072692871,9.150694372558593,0.01213742316365204,-0.10814848106927581,-0.5822512660489357,25.299999237060547,1688,0,-35.25,3.75,-76.5,2779096485
1.2204541015625,0.38746550369262694,9.08496681213379,0.010876110132642213,-0.09432208115390259,-0.5805749859176242,25.299999237060547,1689,0,-35.849998474121094,4.5,-76.6500015258789,2779096485
1.2081269783020019,0.3810640487670898,9.016559115600586,0.008126869037122345,-0.07888562726517029,-0.5792613883768727,25.299999237060547,1690,0,-35.849998474121094,4.5,-76.6500015258789,2779096485
1.1856291923522948,0.38338036346435544,8.948138372039795,0.003914473932962646,-0.06761993661514312,-0.5744864803911323,25.299999237060547,1691,0,-35.849998474121094,4.5,-76.6500015258789,2779096485
1.1642387214660643,0.3892254692077637,8.872400713348389,-0.000302561729364624,-0.059801940999125516,-0.5712398074127231,25.299999237060547,1692,0,-35.25,5.099999904632568,-76.6500015258789,2779096485
1.1493558761596678,0.41547664947509766,8.809101133728028,-0.003902063602368164,-0.054402115609989775,-0.567624592889396,25.200000762939453,1693,0,-35.25,5.099999904632568,-76.6500015258789,2779096485
1.1369434799194336,0.44769394760131836,8.737035035705565,-0.009507365183996887,-0.0475686440368895,-0.5650031568937108,25.200000762939453,1694,0,-35.25,5.099999904632568,-76.6500015258789,2779096485
1.1233353553771972,0.4722786598205566,8.678088789367676,-0.017370461432765046,-0.044853538008407134,-0.561182253125005,25.200000762939453,1695,0,-35.25,5.099999904632568,-76.6500015258789,2779096485
1.1069504570007325,0.47244625244140626,8.648596263885498,-0.028457247579892885,-0.044444835994526824,-0.5539011507810577,25.200000762939453,1696,0,-35.099998474121094,5.25,-75.75,2779096485
1.0999652503967285,0.4645996055603027,8.643972756195067,-0.04054450344685532,-0.04754180603118866,-0.5474228383684897,25.200000762939453,1697,0,-35.099998474121094,5.25,-75.75,2779096485
1.1041980575561523,0.4777294013977051,8.640862217712401,-0.05162422555924027,-0.0493921903175676,-0.5421259374968754,25.200000762939453,1698,0,-35.099998474121094,5.25,-75.75,2779096485
1.121447723388672,0.5134431907653808,8.664597452545166,-0.06731765451769105,-0.05545369139079178,-0.5357116141869596,25.200000762939453,1699,0,-35.099998474121094,5.25,-75.75,2779096485
1.1539246536254884,0.5636825088500976,8.717025755310058,-0.0804840099351323,-0.059832008087625885,-0.5321190298748399,25.200000762939453,1700,0,-35.54999923706055,4.650000095367432,-75.75,2779096485
1.1768154579162597,0.5968498847961425,8.804346445465088,-0.09337693860533416,-0.0664480791645343,-0.5290624666495396,25.299999237060547,1701,0,-35.54999923706055,4.650000095367432,-75.75,2779096485
1.1867989013671874,0.6203332633972167,8.916947415161133,-0.10273671806063583,-0.0737872517356517,-0.5249261114518818,25.399999618530273,1702,0,-35.54999923706055,4.650000095367432,-75.75,2779096485
1.1912698448181152,0.6186879547119141,9.033194561767578,-0.11031267228264496,-0.07987421928662476,-0.5225241066127057,25.399999618530273,1703,0,-35.54999923706055,4.650000095367432,-75.75,2779096485
1.188664102935791,0.5953714210510254,9.15079646835327,-0.11166021181125625,-0.08495094331662979,-0.5180683252181962,25.399999618530273,1704,0,-36.150001525878906,5.25,-75.5999984741211,2779096485
1.1998052925109863,0.5602602249145507,9.25628370513916,-0.10765022360645432,-0.09372833605085251,-0.5114433059200867,25.299999237060547,1705,0,-36.150001525878906,5.25,-75.5999984741211,2779096485
1.2267563766479492,0.5531543800354004,9.346174211120605,-0.10039661174267044,-0.09807702508076309,-0.5067446508937339,25.299999237060547,1706,0,-36.150001525878906,5.25,-75.5999984741211,2779096485
1.2872812759399415,0.5578274215698242,9.425078783416748,-0.08997807928747834,-0.10113188388297745,-0.5034177635038428,25.299999237060547,1707,0,-36.150001525878906,5.25,-75.5999984741211,2779096485
1.374614377593994,0.5711566238403321,9.495804514312743,-0.07557391323548569,-0.10308290902625886,-0.502464924419777,25.299999237060547,1708,0,-35.400001525878906,4.949999809265137,-74.69999694824219,2779096485
1.4539426231384276,0.578967643737793,9.550471896362305,-0.059783345476941835,-0.10128050824449067,-0.5033410844386836,25.299999237060547,1709,0,-35.400001525878906,4.949999809265137,-74.69999694824219,2779096485
1.5272239639282226,0.5671430366516114,9.573955499267578,-0.043394325478153535,-0.09465892442416367,-0.5072243993871065,25.299999237060547,1710,0,-35.400001525878906,4.949999809265137,-74.69999694824219,2779096485
1.5777856819152831,0.5297945182800293,9.559100991058349,-0.025348027002300873,-0.08768150233723114,-0.5116580232814987,25.299999237060547,1711,0,-35.400001525878906,4.949999809265137,-74.69999694824219,2779096485
1.612016072845459,0.46085338897705075,9.509629092407227,-0.009231947723856354,-0.07643690392289246,-0.5204463150024077,25.299999237060547,1712,0,-35.70000076293945,4.949999809265137,-75.75,2779096485
1.6212245079040526,0.4037823631286621,9.445792378997803,0.004175137480765533,-0.06452687476735412,-0.5244283866212748,25.299999237060547,1713,0,-35.70000076293945,4.949999809265137,-75.75,2779096485
1.6361245498657226,0.36704705505371094,9.373566352081298,0.015312603583089295,-0.05277417185213104,-0.5255044168786184,25.299999237060547,1714,0,-35.70000076293945,4.949999809265137,-75.75,2779096485
1.6410744575500489,0.3586374420166015,9.280975335693359,0.02243559405420517,-0.04042932838840363,-0.5303716699745227,25.299999237060547,1715,0,-35.70000076293945,4.949999809265137,-75.75,2779096485
1.6449246391296386,0.39528497238159177,9.191245095062255,0.027637879470841828,-0.027815738683020477,-0.5350520956633392,25.299999237060547,1716,0,-35.54999923706055,5.550000190734863,-75.30000305175781,2779096485
1.6345285507202147,0.4434900756835937,9.087625901031494,0.02787010711630081,-0.01664438385605835,-0.5399818331758902,25.299999237060547,1717,0,-35.54999923706055,5.550000190734863,-75.30000305175781,2779096485
1.598445182800293,0.45958719177246093,8.98108435974121,0.0293304581479126,-0.007293073252964935,-0.5481692425220768,25.299999237060547,1718,0,-35.54999923706055,5.550000190734863,-75.30000305175781,2779096485
1.5248039459228515,0.43163754272460936,8.872826255798339,0.024346005991141968,-0.003199914527891388,-0.5515166362522205,25.299999237060547,1719,0,-35.54999923706055,5.550000190734863,-75.30000305175781,2779096485
1.4394863296508789,0.3649128005981445,8.771702109527588,0.01648658490465286,-0.00081453447170578,-0.5549385984923739,25.299999237060547,1720,0,-36.599998474121094,6.0,-75.5999984741211,2779096485
1.3583869033813476,0.28654308166503906,8.692365863800049,0.006628308302033234,-0.002488890469142914,-0.550189849406261,25.299999237060547,1721,0,-36.599998474121094,6.0,-75.5999984741211,2779096485
1.2992131378173828,0.24443389358520506,8.625019499969483,-0.006009662642962036,-0.008908493495883636,-0.544056542852639,25.299999237060547,1722,0,-36.599998474121094,6.0,-75.5999984741211,2779096485
1.270091835784912,0.2439569480895996,8.57606335144043,-0.01802780948011185,-0.01830036404210022,-0.5394542942570845,25.299999237060547,1723,0,-36.599998474121094,6.0,-75.5999984741211,2779096485
1.2740423934936522,0.26067807846069335,8.534504082489013,-0.029805086714124757,-0.029619577571767426,-0.5345764617538225,25.200000762939453,1724,0,-36.150001525878906,5.699999809265137,-75.44999694824219,2779096485
1.284263262939453,0.27348319396972653,8.515271717071533,-0.03876479945532135,-0.04036078528031876,-0.5307950526638112,25.200000762939453,1725,0,-36.150001525878906,5.699999809265137,-75.44999694824219,2779096485
1.287082804107666,0.2615588088989258,8.523630973815917,-0.047976487181324155,-0.05383938967552322,-0.5325267065717076,25.200000762939453,1726,0,-36.150001525878906,5.699999809265137,-75.44999694824219,2779096485
1.2845338859558104,0.2384049705505371,8.55700934524536,-0.057521795752691195,-0.06762277953958724,-0.5310856767736716,25.299999237060547,1727,0,-36.150001525878906,5.699999809265137,-75.44999694824219,2779096485
1.2795569122314452,0.21984196624755858,8.611009796142579,-0.06592816354429656,-0.0773588170490123,-0.5316538555304325,25.299999237060547,1728,0,-35.849998474121094,6.599999904632568,-75.5999984741211,2779096485
1.2762480140686034,0.21368152618408204,8.663091025543213,-0.07364951304501938,-0.08294447115983399,-0.529341459403419,25.299999237060547,1729,0,-35.849998474121094,6.599999904632568,-75.5999984741211,2779096485
1.259748533630371,0.20242526855468748,8.721332657623291,-0.08463179009378799,-0.08762235352982696,-0.529649061165112,25.299999237060547,1730,0,-35.849998474121094,6.599999904632568,-75.5999984741211,2779096485
1.2505106773376464,0.20785604705810545,8.775764445495605,-0.09518798800268295,-0.08887771439584137,-0.5283402639721924,25.299999237060547,1731,0,-35.849998474121094,6.599999904632568,-75.5999984741211,2779096485
1.2467280487060546,0.2225837860107422,8.816303130340575,-0.10496433245492935,-0.0879058337101123,-0.5289435498497821,25.299999237060547,1732,0,-35.849998474121094,5.699999809265137,-75.44999694824219,2779096485
1.2367798583984375,0.23642477569580078,8.855037063598633,-0.11612924909000046,-0.08627771018888122,-0.5280948203899147,25.399999618530273,1733,0,-35.849998474121094,5.699999809265137,-75.44999694824219,2779096485
1.218438279724121,0.23096113662719725,8.905826936340333,-0.12475664593475799,-0.08484350474109162,-0.5303325947436971,25.399999618530273,1734,0,-35.849998474121094,5.699999809265137,-75.44999694824219,2779096485
1.1978141067504882,0.22029569625854492,8.956594789886474,-0.1331430866236438,-0.08204906980218368,-0.5276872968248086,25.399999618530273,1735,0,-35.849998474121094,5.699999809265137,-75.44999694824219,2779096485
1.171787754058838,0.21016828689575195,9.006964877319335,-0.14162787119300765,-0.07635055758304275,-0.5306663221155041,25.399999618530273,1736,0,-35.400001525878906,6.900000095367432,-75.9000015258789,2779096485
1.1601015426635741,0.20432587280273437,9.063686923217773,-0.1494400944074022,-0.06775894696518722,-0.5278636646667871,25.299999237060547,1737,0,-35.400001525878906,6.900000095367432,-75.9000015258789,2779096485
1.1472017333984375,0.2009528984069824,9.104852239227295,-0.1556561453755243,-0.060843956031679844,-0.5261458924859773,25.299999237060547,1738,0,-35.400001525878906,6.900000095367432,-75.9000015258789,2779096485
1.1490783744812012,0.1972407012939453,9.141937013244629,-0.16282847090549485,-0.055103532315171816,-0.5253261715080842,25.299999237060547,1739,0,-35.400001525878906,6.900000095367432,-75.9000015258789,2779096485
1.1513929321289063,0.20105940551757812,9.185820036315917,-0.16786183201534866,-0.04717393693444138,-0.5236186791290115,25.200000762939453,1740,0,-36.45000076293945,7.050000190734863,-75.0,2779096485
1.1545202186584473,0.21399095382690428,9.228361944580078,-0.17210943410887725,-0.04132174700565353,-0.522540944448582,25.200000762939453,1741,0,-36.45000076293945,7.050000190734863,-75.0,2779096485
1.1483874801635743,0.2104425735473633,9.261545881652832,-0.17430798010007234,-0.03523055834438171,-0.5232790928028466,25.200000762939453,1742,0,-36.45000076293945,7.050000190734863,-75.0,2779096485
1.1366587631225586,0.1866130561828613,9.304479724121093,-0.17806227155247026,-0.027287234368326262,-0.5213002243105597,25.299999237060547,1743,0,-36.150001525878906,6.449999809265137,-74.55000305175781,2779096485
1.1183422691345215,0.15328313446044922,9.335848666381835,-0.1799904134842424,-0.022606535705499878,-0.5202229556833178,25.299999237060547,1744,0,-36.150001525878906,6.449999809265137,-74.55000305175781,2779096485
1.1057222793579102,0.13785556640625,9.373790693664551,-0.18314874940990067,-0.017110809886169434,-0.5169714823570767,25.299999237060547,1745,0,-36.150001525878906,6.449999809265137,-74.55000305175781,2779096485
1.101773403930664,0.1535833282470703,9.407917792510986,-0.18316436219168397,-0.011973099467620697,-0.5140013187348476,25.299999237060547,1746,0,-36.150001525878906,6.449999809265137,-74.55000305175781,2779096485
1.1054344970703125,0.17337308959960937,9.448553713226318,-0.18446698750881974,-0.009142731827951812,-0.5111080272569553,25.299999237060547,1747,0,-36.75,6.75,-75.1500015258789,2779096485
1.111873934173584,0.17810874938964844,9.487369330596923,-0.1841212559384816,-0.004620011879903259,-0.5087700780994581,25.299999237060547,1748,0,-36.75,6.75,-75.1500015258789,2779096485
1.1232010345458985,0.15973745040893556,9.53292854156494,-0.18334188850872865,-0.002551687807215424,-0.5082367468053212,25.299999237060547,1749,0,-36.75,6.75,-75.1500015258789,2779096485
1.1362387161254883,0.13644502944946288,9.581068409729003,-0.185275010551705,0.001859758613351593,-0.5060723225653583,25.299999237060547,1750,0,-36.75,6.75,-75.1500015258789,2779096485
1.1603643898010254,0.11505975494384765,9.630588234710693,-0.18825406913191392,0.005821703392418671,-0.5039026785296947,25.299999237060547,1751,0,-36.0,7.050000190734863,-75.44999694824219,2779096485
1.1957163764953613,0.09490217208862305,9.667816638183593,-0.18879813296516998,0.011197839963820953,-0.5034672849839725,25.299999237060547,1752,0,-36.0,7.050000190734863,-75.44999694824219,2779096485
1.2283622451782226,0.08088428115844726,9.711387093353272,-0.18819932785608354,0.015417938261380769,-0.5030314387008681,25.200000762939453,1753,0,-36.0,7.050000190734863,-75.44999694824219,2779096485
1.2684036476135254,0.07250285568237304,9.748375304412841,-0.18968788176344545,0.019267950380601043,-0.504759863525965,25.200000762939453,1754,0,-36.0,7.050000190734863,-75.44999694824219,2779096485
1.311543625640869,0.050848453521728516,9.787623903656005,-0.1882209993293051,0.025358107066957552,-0.5060540532804059,25.200000762939453,1755,0,-35.25,7.349999904632568,-75.5999984741211,2779096485
1.3470721771240235,0.007314223480224609,9.810357508087158,-0.1857844865805414,0.028038472159258577,-0.5076112834539063,25.200000762939453,1756,0,-35.25,7.349999904632568,-75.5999984741211,2779096485
1.381577153778076,-0.04975418548583984,9.819492147064208,-0.1818709980171753,0.03313676113604233,-0.5098159880050798,25.200000762939453,1757,0,-35.25,7.349999904632568,-75.5999984741211,2779096485
1.4121460403442383,-0.08523929672241211,9.82924291229248,-0.17943867974709962,0.03717090421176529,-0.5103819097328325,25.200000762939453,1758,0,-35.25,7.349999904632568,-75.5999984741211,2779096485
1.4474009407043456,-0.09918821411132812,9.836106209564209,-0.1784687231952449,0.04088727890840378,-0.5101252009792212,25.299999237060547,1759,0,-36.45000076293945,7.5,-75.44999694824219,2779096485
1.4754234886169433,-0.10318770751953124,9.845250568389892,-0.17453401589603942,0.04050861069351044,-0.5140308332174255,25.299999237060547,1760,0,-36.45000076293945,7.5,-75.44999694824219,2779096485
1.494572525024414,-0.12268972396850586,9.852660868835448,-0.1712271687932135,0.04433614573328491,-0.5179494217342441,25.299999237060547,1761,0,-36.45000076293945,7.5,-75.44999694824219,2779096485
1.493764768218994,-0.18178188018798827,9.864728958129882,-0.16844897913684342,0.044544831034869385,-0.5223073186435604,25.299999237060547,1762,0,-36.45000076293945,7.5,-75.44999694824219,2779096485
1.4777435791015625,-0.2676089660644531,9.877771948242188,-0.16679901103692107,0.043893168836410826,-0.5232170012024581,25.200000762939453,1763,0,-36.150001525878906,6.75,-75.44999694824219,2779096485
1.459379906463623,-0.30780001678466795,9.870622177124023,-0.1648784524563008,0.04379623643130081,-0.5243099358747048,25.200000762939453,1764,0,-36.150001525878906,6.75,-75.44999694824219,2779096485
1.4471239624023438,-0.2807931182861328,9.878569499206543,-0.16015527637437957,0.04389163086089188,-0.5263180525334624,25.299999237060547,1765,0,-36.150001525878906,6.75,-75.44999694824219,2779096485
1.4429999053955078,-0.21716396102905272,9.887727017211914,-0.1544624500041269,0.04238081958487259,-0.5285046342735424,25.299999237060547,1766,0,-36.150001525878906,6.75,-75.44999694824219,2779096485
1.4293301345825196,-0.1535005226135254,9.904489531707764,-0.14912908379953735,0.03905130232342316,-0.5304130288659674,25.299999237060547,1767,0,-36.0,6.449999809265137,-75.30000305175781,2779096485
1.4104442443847656,-0.11075475921630859,9.938106188964843,-0.14345212986927247,0.036227892192054294,-0.5351318173900229,25.299999237060547,1768,0,-36.0,6.449999809265137,-75.30000305175781,2779096485
1.3834831413269042,-0.08830665664672852,9.980419269561768,-0.13718498615598831,0.03467199359908981,-0.5353306956009606,25.200000762939453,1769,0,-36.0,6.449999809265137,-75.30000305175781,2779096485
1.3386177406311035,-0.08894450302124023,10.027922039031981,-0.13134369521388672,0.0370736722010347,-0.5384381318606345,25.200000762939453,1770,0,-36.0,6.449999809265137,-75.30000305175781,2779096485
1.2856817253112793,-0.07677080383300781,10.086691271972656,-0.12348434736432709,0.041199148385714264,-0.5426441420361245,25.299999237060547,1771,0,-36.150001525878906,7.349999904632568,-75.0,2779096485
1.2608495307922363,-0.07175569839477539,10.103956489562988,-0.11964821031429078,0.046320460389963534,-0.5442140888037427,25.299999237060547,1772,0,-36.150001525878906,7.349999904632568,-75.0,2779096485
1.2467657318115235,-0.06613848571777343,10.121675960540772,-0.1125071170057895,0.05119372557198746,-0.5415395160867728,25.299999237060547,1773,0,-36.150001525878906,7.349999904632568,-75.0,2779096485
1.2432927177429198,-0.053639208984375,10.147016802215576,-0.10754492887557891,0.05575484164478836,-0.5437459849821564,25.299999237060547,1774,0,-35.849998474121094,7.349999904632568,-75.75,2779096485
1.2568182609558105,-0.046539756774902345,10.191031005859374,-0.10066170945365784,0.059702079116836546,-0.5445081683650937,25.299999237060547,1775,0,-35.849998474121094,7.349999904632568,-75.75,2779096485
1.2707752159118653,-0.03833403625488281,10.216182833862304,-0.09291382155285477,0.06618059792438767,-0.5430184959300817,25.299999237060547,1776,0,-35.849998474121094,7.349999904632568,-75.75,2779096485
1.2941185539245605,-0.03449761199951172,10.236019998168945,-0.0847053732342012,0.07167824787759247,-0.5450570591777923,25.299999237060547,1777,0,-35.849998474121094,7.349999904632568,-75.75,2779096485
1.345689379119873,-0.05302850341796875,10.2235338432312,-0.059688403784732974,0.0832142893238211,-0.5425582218020464,25.299999237060547,1779,0,-35.849998474121094,7.949999809265137,-74.8499984741211,2779096485
1.3786389930725098,-0.05588726043701172,10.192739082336425,-0.04653134279943222,0.0905699801514862,-0.5440785871684106,25.299999237060547,1780,0,-35.849998474121094,7.949999809265137,-74.8499984741211,2779096485
1.414018830871582,-0.030202560424804688,10.153404985809326,-0.03362782806397003,0.09496697226533615,-0.5454065790947551,25.299999237060547,1781,0,-35.849998474121094,7.949999809265137,-74.8499984741211,2779096485
1.4497513496398926,0.007325737762451171,10.076019438934326,-0.018977033323022766,0.09873399362765717,-0.5471911766447585,25.299999237060547,1782,0,-35.400001525878906,7.650000095367432,-74.8499984741211,2779096485
1.4834673362731934,0.029994480895996094,9.997954736328124,-0.0055462060374459835,0.10229465995433151,-0.5520495214668778,25.299999237060547,1783,0,-35.400001525878906,7.650000095367432,-74.8499984741211,2779096485
1.4919438667297362,0.04882676239013672,9.901781058502197,0.004811759477071228,0.10545340866995591,-0.5575309860586688,25.299999237060547,1784,0,-35.400001525878906,7.650000095367432,-74.8499984741211,2779096485
1.497887516784668,0.06592797622680664,9.798230576324462,0.015190810569374238,0.10631379611741501,-0.5620979277963143,25.200000762939453,1785,0,-35.400001525878906,7.650000095367432,-74.8499984741211,2779096485
1.5110777626037597,0.09304085845947266,9.683519091033935,0.020075873554946135,0.1073706249834311,-0.5650162263566706,25.200000762939453,1786,0,-35.849998474121094,6.75,-75.1500015258789,2779096485
1.5216393501281738,0.12458737487792969,9.583073838806152,0.0211274293620401,0.10677508224665756,-0.571990139728891,25.200000762939453,1787,0,-35.849998474121094,6.75,-75.1500015258789,2779096485
1.5271489715576172,0.1445343360900879,9.492733116912841,0.020173451776616058,0.10563790581110596,-0.5791362930434286,25.200000762939453,1788,0,-35.849998474121094,6.75,-75.1500015258789,2779096485
1.5270534553527833,0.1559794204711914,9.415637034606933,0.01442540476154007,0.1028603220238797,-0.5887954184611007,25.200000762939453,1789,0,-35.849998474121094,6.75,-75.1500015258789,2779096485
1.5115031929016112,0.1507658432006836,9.358238636779785,0.003957830195211181,0.10199970154982681,-0.5939173696240073,25.200000762939453,1790,0,-36.150001525878906,7.800000190734863,-76.19999694824219,2779096485
1.476825315093994,0.13620076217651367,9.325226778411865,-0.0058921706343778996,0.09872014519008393,-0.5987613267184363,25.200000762939453,1791,0,-36.150001525878906,7.800000190734863,-76.19999694824219,2779096485
1.434335333251953,0.11771544189453124,9.288467133331299,-0.01592061657158142,0.09704206742504898,-0.605149630944681,25.200000762939453,1792,0,-36.150001525878906,7.800000190734863,-76.19999694824219,2779096485
1.3947233985900878,0.10381983413696289,9.260046482849122,-0.03152640755706268,0.09370553273417541,-0.606441596959627,25.299999237060547,1793,0,-36.150001525878906,7.800000190734863,-76.19999694824219,2779096485
1.3661868949890137,0.08615423355102539,9.235493322753905,-0.041791548592423094,0.0895892710868042,-0.6082011541376529,25.299999237060547,1794,0,-35.70000076293945,7.800000190734863,-75.1500015258789,2779096485
1.3495678604125976,0.07305927963256836,9.224462229156494,-0.05216007354058991,0.08358552066142151,-0.6062424790641928,25.299999237060547,1795,0,-35.70000076293945,7.800000190734863,-75.1500015258789,2779096485
1.344615859222412,0.08109841690063477,9.214094066619873,-0.06418347346295379,0.07683908785004959,-0.6070824999873555,25.299999237060547,1796,0,-35.70000076293945,7.800000190734863,-75.1500015258789,2779096485
1.353929941558838,0.09988273468017578,9.218295695495605,-0.0718029637105838,0.07046923933003235,-0.6075800117650769,25.200000762939453,1797,0,-35.70000076293945,7.800000190734863,-75.1500015258789,2779096485
1.3602155433654786,0.08581044998168945,9.227585216522217,-0.08034070523785995,0.0639681568903006,-0.6106065611650983,25.200000762939453,1798,0,-36.0,8.699999809265137,-75.5999984741211,2779096485
1.3541369369506835,0.03924059906005859,9.228328859710693,-0.08748364944330612,0.05879448713938019,-0.6063077198525487,25.200000762939453,1799,0,-36.0,8.699999809265137,-75.5999984741211,2779096485
1.3434397201538086,0.012635653686523437,9.214906982421875,-0.0930360739618547,0.05631829994854965,-0.6067307030676764,25.299999237060547,1800,0,-36.0,8.699999809265137,-75.5999984741211,2779096485
1.3393619445800782,0.03986532363891601,9.181060375976562,-0.09948318744246688,0.05237603592980301,-0.6054267528279074,25.299999237060547,1801,0,-36.0,8.699999809265137,-75.5999984741211,2779096485
1.3373196174621582,0.08276477279663086,9.142929409790039,-0.10555392968461014,0.04758691997974457,-0.6033950805094699,25.299999237060547,1802,0,-35.849998474121094,8.699999809265137,-75.1500015258789,2779096485
1.3146143127441405,0.12235199661254882,9.113250861358642,-0.11044743489077957,0.04287620749163925,-0.6041778035221733,25.299999237060547,1803,0,-35.849998474121094,8.699999809265137,-75.1500015258789,2779096485
1.2834125518798827,0.142358211517334,9.112234127807618,-0.12239103984953034,0.037015788395139616,-0.6052931953001578,25.200000762939453,1804,0,-35.849998474121094,8.699999809265137,-75.1500015258789,2779096485
1.2364641502380371,0.14789770278930664,9.13161124420166,-0.1344194065672931,0.032145379453365173,-0.6070452823113774,25.200000762939453,1805,0,-35.849998474121094,8.699999809265137,-75.1500015258789,2779096485
1.1943105125427245,0.16262271270751952,9.158995048522948,-0.15065132669445724,0.031376970931422575,-0.6004665620685007,25.200000762939453,1806,0,-35.70000076293945,8.550000190734863,-74.55000305175781,2779096485
1.1647620979309081,0.1883128707885742,9.199957556152343,-0.1654649071559169,0.030606258775152894,-0.598509498207489,25.200000762939453,1807,0,-35.70000076293945,8.550000190734863,-74.55000305175781,2779096485
1.1668245376586914,0.22524425811767576,9.261503114318847,-0.1832576926714444,0.02856280196897278,-0.5950897929963438,25.200000762939453,1808,0,-35.70000076293945,8.550000190734863,-74.55000305175781,2779096485
1.1920173759460448,0.2647596672058105,9.343922720336915,-0.1996495622525795,0.026879471118723755,-0.5927624432199122,25.299999237060547,1809,0,-35.70000076293945,8.550000190734863,-74.55000305175781,2779096485
1.2218559654235839,0.290724186706543,9.45209790649414,-0.2138560418582141,0.025405524649840545,-0.5881793094629505,25.299999237060547,1810,0,-35.54999923706055,8.399999618530273,-75.0,2779096485
1.2503877960205079,0.3000975975036621,9.597915561676025,-0.22720316599130494,0.023778066918877412,-0.5881272047165811,25.299999237060547,1811,0,-35.54999923706055,8.399999618530273,-75.0,2779096485
1.273284955596924,0.2891397766113281,9.75093383026123,-0.23767968212093232,0.02538395970306183,-0.5879153302796132,25.299999237060547,1812,0,-35.54999923706055,8.399999618530273,-75.0,2779096485
1.2992976257324218,0.266531184387207,9.920245742797851,-0.2428361345355237,0.028496322810718535,-0.5905342961934044,25.299999237060547,1813,0,-35.70000076293945,8.550000190734863,-75.9000015258789,2779096485
1.3289791275024414,0.2367208946228027,10.073132681274414,-0.24450260757618836,0.03171010574989121,-0.5921696968022641,25.299999237060547,1814,0,-35.70000076293945,8.550000190734863,-75.9000015258789,2779096485
1.36290143661499,0.18459181365966795,10.186206372070313,-0.24085010213995378,0.03628358554796784,-0.5927417504583845,25.299999237060547,1815,0,-35.70000076293945,8.550000190734863,-75.9000015258789,2779096485
1.4037670448303223,0.13211023864746094,10.289966242218018,-0.2319943126016806,0.04357920211975632,-0.5956069921922884,25.200000762939453,1816,0,-35.70000076293945,8.550000190734863,-75.9000015258789,2779096485
1.4291784301757813,0.0910147933959961,10.36934047012329,-0.21916091889723832,0.04754524816687393,-0.5980187575167926,25.200000762939453,1817,0,-35.849998474121094,8.850000381469727,-75.44999694824219,2779096485
1.455229119873047,0.07170407104492187,10.424362477111815,-0.20215531053130675,0.05503565499735489,-0.5967452006027553,25.200000762939453,1818,0,-35.849998474121094,8.850000381469727,-75.44999694824219,2779096485
1.4704420288085938,0.08016549835205078,10.445233945465088,-0.184535211037576,0.05799752287284546,-0.5986278490855188,25.200000762939453,1819,0,-35.849998474121094,8.850000381469727,-75.44999694824219,2779096485
1.4803569847106932,0.11576836929321288,10.448514543914795,-0.16570265420269714,0.06385509904490097,-0.5976272728392413,25.200000762939453,1820,0,-35.849998474121094,8.850000381469727,-75.44999694824219,2779096485
1.4847197387695312,0.139638037109375,10.425352742767334,-0.15008846760193711,0.06653683566515396,-0.6005885681351015,25.200000762939453,1821,0,-36.599998474121094,8.850000381469727,-75.0,2779096485
1.48441767578125,0.13510440063476561,10.399921132659912,-0.13526296949468125,0.07021508055314728,-0.602282917814285,25.200000762939453,1822,0,-36.599998474121094,8.850000381469727,-75.0,2779096485
1.4786450202941894,0.1136893310546875,10.371756674957275,-0.1240886385852214,0.06886985797466842,-0.6035847375251966,25.200000762939453,1823,0,-36.599998474121094,8.850000381469727,-75.0,2779096485
1.4873880615234374,0.09848546905517577,10.35586464767456,-0.11352329937594757,0.06680951006939057,-0.6045197201142761,25.200000762939453,1824,0,-36.599998474121094,8.850000381469727,-75.0,2779096485
1.5011828071594238,0.10380215148925781,10.339608686828614,-0.10365806526502792,0.06504258925100113,-0.6024651512685241,25.200000762939453,1825,0,-36.0,9.300000190734863,-74.55000305175781,2779096485
1.5376971008300782,0.11516581344604492,10.323571871185303,-0.0957223779033458,0.06333130186740113,-0.6021252253893223,25.200000762939453,1826,0,-36.0,9.300000190734863,-74.55000305175781,2779096485
1.5798177658081054,0.12925873413085937,10.322191166687011,-0.08780486661597854,0.06120792359745697,-0.6039583390761508,25.200000762939453,1827,0,-36.0,9.300000190734863,-74.55000305175781,2779096485
1.6195491424560546,0.13517916870117186,10.308431038665772,-0.07838420729857605,0.059557010075354154,-0.6073362992374959,25.200000762939453,1828,0,-36.0,9.300000190734863,-74.55000305175781,2779096485
1.6667828964233398,0.12671303100585937,10.297236352539063,-0.06982768382784119,0.058375745008259275,-0.6101689438798812,25.200000762939453,1829,0,-35.25,9.0,-74.8499984741211,2779096485
1.7086017601013184,0.10295439376831055,10.290063216400146,-0.0624096750310965,0.05896682695023758,-0.6154487073099985,25.200000762939453,1830,0,-35.25,9.0,-74.8499984741211,2779096485
1.75705101852417,0.06426576995849609,10.276988786315918,-0.05499605379221756,0.060831092963703155,-0.6186502729977543,25.200000762939453,1831,0,-35.25,9.0,-74.8499984741211,2779096485
1.784332876586914,-0.022284024047851562,10.256956552124024,-0.04938725681168213,0.0615803134101236,-0.6207534245593583,25.299999237060547,1832,0,-35.25,9.0,-74.8499984741211,2779096485
1.7946709823608398,-0.1343767204284668,10.222734909057618,-0.04416082983992981,0.06524622786235458,-0.6227765681044635,25.299999237060547,1833,0,-35.70000076293945,9.300000190734863,-74.69999694824219,2779096485
1.8029518447875976,-0.20822884063720704,10.181886235809326,-0.039457321202523654,0.06813698267932602,-0.6209015096307545,25.299999237060547,1834,0,-35.70000076293945,9.300000190734863,-74.69999694824219,2779096485
1.839154393005371,-0.19877527847290039,10.123530731964111,-0.035383377184582974,0.0689972835740503,-0.6205581216421596,25.200000762939453,1835,0,-35.70000076293945,9.300000190734863,-74.69999694824219,2779096485
1.8882407875061034,-0.12585390853881837,10.069531813812256,-0.029797962758257752,0.0689951130977768,-0.6214830308244852,25.200000762939453,1836,0,-35.70000076293945,9.300000190734863,-74.69999694824219,2779096485
1.938712297821045,-0.0524823974609375,10.024148943328857,-0.027604776378719637,0.0658025222628328,-0.6280895944163674,25.200000762939453,1837,0,-35.70000076293945,9.899999618530273,-75.5999984741211,2779096485
1.9632352890014648,-0.017138934326171876,9.986475632476806,-0.023588156902848968,0.06584227659973176,-0.6345327464448852,25.200000762939453,1838,0,-35.70000076293945,9.899999618530273,-75.5999984741211,2779096485
1.9622275276184082,0.0004801605224609375,9.961269074249268,-0.02009141309979996,0.06462198956503265,-0.6414224240324053,25.200000762939453,1839,0,-35.70000076293945,9.899999618530273,-75.5999984741211,2779096485
1.9405483772277832,-0.014553155517578124,9.935649796295166,-0.016518656021859743,0.06735144337378922,-0.6479640397836496,25.200000762939453,1840,0,-35.70000076293945,9.899999618530273,-75.5999984741211,2779096485
1.9170025672912596,-0.022156694030761717,9.91293271560669,-0.018701709073519746,0.06805400523823212,-0.6494982669033925,25.200000762939453,1841,0,-34.5,10.5,-75.5999984741211,2779096485
1.898641586303711,-0.020708885192871094,9.877064567565917,-0.022463630482388305,0.07221679896742997,-0.6553855706109117,25.200000762939453,1842,0,-34.5,10.5,-75.5999984741211,2779096485
1.8929687461853026,-0.01231796417236328,9.846940962219238,-0.02884280006615677,0.07619311150047928,-0.6618064186654535,25.200000762939453,1843,0,-34.5,10.5,-75.5999984741211,2779096485
1.8940851829528809,-0.007069881439208984,9.819960456848143,-0.037663975168399505,0.07937647448230957,-0.6662238904879454,25.200000762939453,1844,0,-34.5,10.5,-75.5999984741211,2779096485
1.907098078918457,0.007962313079833984,9.813511262512206,-0.04343010504715286,0.08237885569560456,-0.6711946473389044,25.200000762939453,1845,0,-35.25,10.050000190734863,-75.44999694824219,2779096485
1.9133794937133788,0.014325374603271483,9.817248020935057,-0.05608199100874817,0.08266927341048187,-0.6778524035444888,25.200000762939453,1846,0,-35.25,10.050000190734863,-75.44999694824219,2779096485
1.905136725616455,0.01120911636352539,9.850855930328368,-0.06411245361507217,0.08405417043102753,-0.6829001590399356,25.200000762939453,1847,0,-35.25,10.050000190734863,-75.44999694824219,2779096485
1.8712849601745605,0.00227713623046875,9.86619003829956,-0.070922236370439,0.08588418153520737,-0.6884970250588694,25.200000762939453,1848,0,-35.25,10.050000190734863,-75.44999694824219,2779096485
1.8175100471496581,-0.01691268615722656,9.87253911819458,-0.07414438163537705,0.08396862969740204,-0.691920005958133,25.200000762939453,1849,0,-35.099998474121094,10.649999618530273,-73.80000305175781,2779096485
1.748905785369873,-0.058948900604248046,9.882620507812499,-0.07299867642649308,0.08027399971091462,-0.6940842104873074,25.200000762939453,1850,0,-35.099998474121094,10.649999618530273,-73.80000305175781,2779096485
1.6846138092041014,-0.10062806015014648,9.890994344329833,-0.07113056880318146,0.0746674331277768,-0.6931642747582833,25.200000762939453,1851,0,-35.099998474121094,10.649999618530273,-73.80000305175781,2779096485
1.6305767593383789,-0.11774796600341797,9.898068487548828,-0.0666390411291861,0.06185701584548126,-0.6927723839486687,25.200000762939453,1852,0,-35.099998474121094,10.649999618530273,-73.80000305175781,2779096485
1.6003310577392578,-0.12434520111083984,9.905176986694336,-0.06041510054638886,0.05165286785656723,-0.6909471798502234,25.200000762939453,1853,0,-36.0,10.649999618530273,-75.30000305175781,2779096485
1.5987688537597655,-0.08798919143676757,9.904925691223145,-0.05505707347027466,0.03860490992247452,-0.6858491705053522,25.200000762939453,1854,0,-36.0,10.649999618530273,-75.30000305175781,2779096485
1.6170435523986817,-0.042452074432373046,9.916475899505615,-0.04655814751561966,0.02641903720102417,-0.6852926164466695,25.200000762939453,1855,0,-36.0,10.649999618530273,-75.30000305175781,2779096485
1.6391411796569824,0.0044848876953125,9.933076167297363,-0.04146768823238693,0.015940150858042908,-0.6840058036483974,25.200000762939453,1856,0,-36.0,10.649999618530273,-75.30000305175781,2779096485
1.6534960876464844,0.04232519302368164,9.944975953674316,-0.038909355838297424,0.005994715651446686,-0.6829837223764653,25.200000762939453,1857,0,-35.099998474121094,11.550000190734863,-75.0,2779096485
1.6491015571594239,0.05625642776489258,9.96313719177246,-0.03845038000128464,-0.0017376460203079225,-0.6852219161781165,25.200000762939453,1858,0,-35.099998474121094,11.550000190734863,-75.0,2779096485
1.6357296249389648,0.07049353866577149,9.997011686706543,-0.035554352125391084,-0.007223737854461212,-0.6872953668358674,25.200000762939453,1859,0,-35.099998474121094,11.550000190734863,-75.0,2779096485
1.6064377395629883,0.08739527130126953,10.033317302703857,-0.036752961028965914,-0.011784574295349579,-0.6876367108483399,25.299999237060547,1860,0,-35.25,10.949999809265137,-75.5999984741211,2779096485
1.585632029724121,0.10618138351440429,10.07923872756958,-0.03909047076488632,-0.013100182522710266,-0.6869890966547104,25.299999237060547,1861,0,-35.25,10.949999809265137,-75.5999984741211,2779096485
1.569185260772705,0.13085802307128905,10.142897567749023,-0.039260999626214904,-0.014534727523536529,-0.6868929232505059,25.299999237060547,1862,0,-35.25,10.949999809265137,-75.5999984741211,2779096485
1.5567093864440917,0.1595168098449707,10.197236792755128,-0.035663854650759885,-0.01594110959602875,-0.6870805629217206,25.299999237060547,1863,0,-35.25,10.949999809265137,-75.5999984741211,2779096485
1.556873427581787,0.19317481384277344,10.26381738204956,-0.03146998848975708,-0.01404240890990509,-0.6879160831026719,25.299999237060547,1864,0,-35.400001525878906,10.5,-75.5999984741211,2779096485
1.5839129249572754,0.24314036865234373,10.304847816467285,-0.026581962737492828,-0.014483874462870942,-0.687659867033859,25.299999237060547,1865,0,-35.400001525878906,10.5,-75.5999984741211,2779096485
1.6128443534851074,0.2903263832092285,10.345975486755371,-0.0156699065882843,-0.015820255346591493,-0.6878742048948183,25.299999237060547,1866,0,-35.400001525878906,10.5,-75.5999984741211,2779096485
1.6290766876220704,0.2867164314270019,10.399636714935303,-0.005297253740456238,-0.015451081300919036,-0.6857390221634234,25.299999237060547,1867,0,-35.400001525878906,10.5,-75.5999984741211,2779096485
1.6505288795471191,0.2755700454711914,10.45148724746704,0.0045416616811715695,-0.013380300462142487,-0.6827933463072493,25.299999237060547,1868,0,-34.650001525878906,11.699999809265137,-74.8499984741211,2779096485
1.6921884498596191,0.274374242401123,10.496479305267334,0.018841252055778197,-0.008978934106232147,-0.6837640019388853,25.299999237060547,1869,0,-34.650001525878906,11.699999809265137,-74.8499984741211,2779096485
1.7506697883605957,0.28093226165771484,10.514916848754883,0.03329691032709366,-0.0055747418083300785,-0.681744913056512,25.299999237060547,1870,0,-34.650001525878906,11.699999809265137,-74.8499984741211,2779096485
1.8121652145385743,0.2661229507446289,10.51660387802124,0.04967967855526596,0.0006379069715228272,-0.6798319045375302,25.200000762939453,1871,0,-34.650001525878906,11.699999809265137,-74.8499984741211,2779096485
1.8756602752685547,0.23168840560913084,10.493176799774169,0.06711952199185349,0.00515476796521347,-0.6780973744156763,25.200000762939453,1872,0,-35.099998474121094,11.850000381469727,-75.44999694824219,2779096485
1.9388925636291503,0.18924683609008788,10.451836713409424,0.08458389979981476,0.011778295893122863,-0.6775454342835504,25.399999618530273,1873,0,-35.099998474121094,11.850000381469727,-75.44999694824219,2779096485
2.0160413200378415,0.1871319839477539,10.39367601776123,0.10119477443168746,0.016563816575734407,-0.6746287336198372,25.5,1874,0,-35.099998474121094,11.850000381469727,-75.44999694824219,2779096485
2.107101946258545,0.2277043144226074,10.3239263092041,0.11522096469066544,0.021740688777843627,-0.6772317605146138,25.5,1875,0,-35.099998474121094,11.850000381469727,-75.44999694824219,2779096485
2.197794339752197,0.2888211898803711,10.237020021057129,0.1293720172564937,0.02846509058924927,-0.6783043419783694,25.5,1876,0,-34.79999923706055,11.100000381469727,-75.5999984741211,2779096485
2.283924535369873,0.34218581314086916,10.157655326080322,0.141004125580484,0.03191076827874695,-0.6850612210390454,25.200000762939453,1877,0,-34.79999923706055,11.100000381469727,-75.5999984741211,2779096485
2.3542263687133786,0.37137309799194335,10.063160303497314,0.15095820274475816,0.03799169045408707,-0.6927220169148987,25.200000762939453,1878,0,-34.79999923706055,11.100000381469727,-75.5999984741211,2779096485
2.3987680236816407,0.3630929458618164,9.957336460876464,0.1599321767134941,0.04379045737177505,-0.6975727251226447,25.200000762939453,1879,0,-34.79999923706055,11.100000381469727,-75.5999984741211,2779096485
2.420700712585449,0.3231846305847168,9.847901956176758,0.16349968070622026,0.0487403150662233,-0.7067480607000177,25.200000762939453,1880,0,-35.25,12.149999618530273,-75.0,2779096485
2.43980376663208,0.3202620216369629,9.758071713256836,0.1633966962675746,0.054978769876861726,-0.7115687683982901,25.200000762939453,1881,0,-35.25,12.149999618530273,-75.0,2779096485
2.448827300262451,0.36167220306396486,9.605097408294677,0.16251508342637344,0.0590493449960466,-0.7180996050050963,25.200000762939453,1882,0,-35.25,12.149999618530273,-75.0,2779096485
2.436523317718506,0.38779571685791014,9.484828749084473,0.15876551908487793,0.05898656763168213,-0.7251492653361008,25.200000762939453,1883,0,-35.25,12.149999618530273,-75.0,2779096485
2.4025339042663574,0.3866599151611328,9.413150248718262,0.15293245731048813,0.05506408424179611,-0.7322686738555751,25.200000762939453,1884,0,-35.25,13.050000190734863,-75.0,2779096485
2.350979528045654,0.4017094184875488,9.36354275817871,0.14465958712550828,0.04996559552793198,-0.7402809737033896,25.200000762939453,1885,0,-35.25,13.050000190734863,-75.0,2779096485
2.3036076026916503,0.4244903137207031,9.35196862411499,0.1353643294050731,0.044479530325389406,-0.7461136626352294,25.299999237060547,1886,0,-35.25,13.050000190734863,-75.0,2779096485
2.270432263946533,0.4577238594055176,9.351599082946777,0.12447779965473756,0.03889398939891327,-0.7487723828859195,25.299999237060547,1887,0,-35.25,13.050000190734863,-75.0,2779096485
2.250527322387695,0.4989665977478027,9.379789260864257,0.1137214718492012,0.03263723201380905,-0.7544147290380566,25.299999237060547,1888,0,-35.099998474121094,12.600000381469727,-75.0,2779096485
2.2451455543518066,0.5341228416442871,9.426432870483398,0.10525070882288025,0.028336759515102998,-0.7592612161355039,25.299999237060547,1889,0,-35.099998474121094,12.600000381469727,-75.0,2779096485
2.25386881942749,0.5379816215515136,9.493736130523681,0.09687563983177093,0.025970208007694853,-0.7613067834968333,25.200000762939453,1890,0,-35.099998474121094,12.600000381469727,-75.0,2779096485
2.2627832290649414,0.5322759956359863,9.576044444274903,0.0898991298775055,0.02468268947173874,-0.7642661679746244,25.200000762939453,1891,0,-35.099998474121094,12.600000381469727,-75.0,2779096485
2.2831750602722165,0.5151293975830078,9.644051383972167,0.08422973932468444,0.024195350969311524,-0.7682289583073318,25.200000762939453,1892,0,-34.95000076293945,12.449999809265137,-75.0,2779096485
2.313647533416748,0.501071206665039,9.708188702392578,0.08256599602411835,0.026761559662270812,-0.7722164028536612,25.200000762939453,1893,0,-34.95000076293945,12.449999809265137,-75.0,2779096485
2.347668872833252,0.484913939666748,9.760270417785645,0.08351563931489807,0.030945578785210724,-0.7761280538358878,25.200000762939453,1894,0,-34.95000076293945,12.449999809265137,-75.0,2779096485
2.3866807563781736,0.4878264549255371,9.792903575897217,0.08621914727691284,0.03258948819369476,-0.7836589007672436,25.200000762939453,1895,0,-34.95000076293945,12.449999809265137,-75.0,2779096485
2.4265769218444824,0.4894080986022949,9.83019141998291,0.09162650275397903,0.034856297661062165,-0.7921068271873741,25.200000762939453,1896,0,-35.099998474121094,13.5,-75.44999694824219,2779096485
2.4668383666992186,0.49959506072998044,9.847801991271972,0.09563784917092759,0.03514637582290283,-0.799728334779516,25.200000762939453,1897,0,-35.099998474121094,13.5,-75.44999694824219,2779096485
2.4848607231140134,0.5039004302978516,9.853669303131102,0.10024431221887818,0.03782053574990662,-0.8098057762225376,25.299999237060547,1898,0,-35.099998474121094,13.5,-75.44999694824219,2779096485
2.4965701499938966,0.5061857536315918,9.85079607849121,0.10855205649809296,0.04027939242006256,-0.821341884247793,25.299999237060547,1899,0,-35.099998474121094,13.5,-75.44999694824219,2779096485
2.492788306427002,0.4946265357971191,9.841138212585449,0.1165818932615651,0.041442068622876437,-0.8334170626792949,25.299999237060547,1900,0,-34.650001525878906,13.350000381469727,-75.44999694824219,2779096485
2.4792243324279784,0.48555320663452145,9.827479245758056,0.12287087489563782,0.040821279119142455,-0.8440311244203769,25.299999237060547,1901,0,-34.650001525878906,13.350000381469727,-75.44999694824219,2779096485
2.4592823806762696,0.47717750091552735,9.788768677520752,0.12808421908862502,0.04158248379038589,-0.855553364034351,25.200000762939453,1902,0,-34.650001525878906,13.350000381469727,-75.44999694824219,2779096485
2.4277968376159667,0.47105037002563477,9.753452504730225,0.13131970013263,0.041280361482598116,-0.8705948777940414,25.200000762939453,1903,0,-34.650001525878906,13.350000381469727,-75.44999694824219,2779096485
2.39627985458374,0.4678855499267578,9.724394157409668,0.134554495412659,0.04065433886735809,-0.8814699492938657,25.200000762939453,1904,0,-34.79999923706055,14.399999618530273,-75.0,2779096485
2.3587371261596677,0.45386945343017576,9.701822276306151,0.13525602530218658,0.040585256469156186,-0.8898027605766685,25.200000762939453,1905,0,-34.79999923706055,14.399999618530273,-75.0,2779096485
2.308169501495361,0.42326707077026365,9.693772297668456,0.13657060821253464,0.0401337308252417,-0.9010339699487189,25.200000762939453,1906,0,-34.79999923706055,14.399999618530273,-75.0,2779096485
2.2652036956787107,0.38894064025878905,9.688740930175781,0.13630706179287155,0.04202868977005951,-0.9103663721082027,25.200000762939453,1907,0,-34.79999923706055,14.399999618530273,-75.0,2779096485
2.2287070472717283,0.37945597457885744,9.667471546173095,0.13359775479762298,0.04464491262794678,-0.9189684156595569,25.200000762939453,1908,0,-35.25,14.550000190734863,-74.55000305175781,2779096485
2.198434204864502,0.38501539154052733,9.65070476989746,0.1317564851800122,0.04845532354202972,-0.9243178606991173,25.200000762939453,1909,0,-35.25,14.550000190734863,-74.55000305175781,2779096485
2.180147019958496,0.3989916366577148,9.64536849822998,0.12808338019288742,0.052333179010255436,-0.9321060222532284,25.200000762939453,1910,0,-35.25,14.550000190734863,-74.55000305175781,2779096485
2.1657299797058105,0.40275299377441404,9.654638990783692,0.12449385851600037,0.05746989740130493,-0.9395367076966746,25.200000762939453,1911,0,-34.79999923706055,14.850000381469727,-75.0,2779096485
2.1554750534057616,0.4011480972290039,9.669245792388915,0.11810094702110153,0.06533783394532104,-0.9514949933308336,25.200000762939453,1912,0,-34.79999923706055,14.850000381469727,-75.0,2779096485
2.1395796615600586,0.3891604957580566,9.687165417480468,0.11002719473155578,0.07554116301220551,-0.9597438484608487,25.200000762939453,1913,0,-34.79999923706055,14.850000381469727,-75.0,2779096485
2.1216472885131834,0.371687198638916,9.706953646087646,0.10616048459241546,0.08606393824964965,-0.9666491721196655,25.200000762939453,1914,0,-34.79999923706055,14.850000381469727,-75.0,2779096485
2.101884705352783,0.35366349639892575,9.720859908294678,0.10019349910562866,0.09848043406201325,-0.9721050370756541,25.200000762939453,1915,0,-34.349998474121094,15.0,-74.8499984741211,2779096485
2.0880849502563477,0.33023623123168944,9.716177184295654,0.09492820329803375,0.1099794176219281,-0.9800955256342908,25.200000762939453,1916,0,-34.349998474121094,15.0,-74.8499984741211,2779096485
2.083384169769287,0.3173507400512695,9.703542315673827,0.0917563251983255,0.12192284281730652,-0.9888192490150145,25.200000762939453,1917,0,-34.349998474121094,15.0,-74.8499984741211,2779096485
2.083317887878418,0.30559753646850585,9.68516152114868,0.0847730974202565,0.13222231865678483,-0.995077870612869,25.299999237060547,1918,0,-34.349998474121094,15.0,-74.8499984741211,2779096485
2.0866460762023924,0.3040097991943359,9.659025408935547,0.0820443360333786,0.1416607279427307,-1.003069950410246,25.299999237060547,1919,0,-34.04999923706055,15.149999618530273,-74.8499984741211,2779096485
2.08963268661499,0.3035596580505371,9.638512902069092,0.07967805084207764,0.14626045319316971,-1.0105029927512408,25.299999237060547,1920,0,-34.04999923706055,15.149999618530273,-74.8499984741211,2779096485
2.0922669898986817,0.3187856140136719,9.622737774658203,0.07352856558494461,0.1529680371424071,-1.0176598519732871,25.200000762939453,1921,0,-34.04999923706055,15.149999618530273,-74.8499984741211,2779096485
2.1018038063049316,0.34639959182739255,9.619939205932617,0.07089776857809205,0.15855265927831344,-1.0252765259280836,25.200000762939453,1922,0,-34.04999923706055,15.149999618530273,-74.8499984741211,2779096485
2.1074583656311034,0.3787479209899902,9.625558287811279,0.0676641850363507,0.16160472841930512,-1.0353270694442802,25.200000762939453,1923,0,-34.95000076293945,15.75,-75.30000305175781,2779096485
2.1198324058532716,0.4013934112548828,9.62875421142578,0.06337512418283722,0.167361064523217,-1.0436629833097317,25.200000762939453,1924,0,-34.95000076293945,15.75,-75.30000305175781,2779096485
2.1175918312072755,0.40661128768920896,9.62037633743286,0.05972108742898636,0.17334006752434022,-1.0520912622590552,25.200000762939453,1925,0,-34.95000076293945,15.75,-75.30000305175781,2779096485
2.105579705810547,0.3886175674438476,9.611472918701171,0.056051650946237944,0.17629746794713289,-1.0626832663685601,25.200000762939453,1926,0,-34.95000076293945,15.75,-75.30000305175781,2779096485
2.076349354553223,0.3592613441467285,9.601237020874024,0.05273408462009811,0.1780990165173581,-1.0720952837282847,25.200000762939453,1927,0,-33.75,16.200000762939453,-75.0,2779096485
2.044687209320068,0.32228943252563474,9.58429928741455,0.05004928536461258,0.18043100685195726,-1.0770730180612518,25.200000762939453,1928,0,-33.75,16.200000762939453,-75.0,2779096485
2.0206417243957517,0.321832861328125,9.557526300811768,0.04769883266588333,0.17921263729322984,-1.0830368876495846,25.200000762939453,1929,0,-33.75,16.200000762939453,-75.0,2779096485
2.011779054260254,0.34361182708740234,9.535068814849852,0.04324828438287994,0.17979980438843263,-1.0873698906607825,25.200000762939453,1930,0,-33.75,16.200000762939453,-75.0,2779096485
2.005666428375244,0.36584968185424804,9.53373327026367,0.04011801817491821,0.17635345425076432,-1.0915122179971437,25.200000762939453,1931,0,-33.75,16.200000762939453,-74.8499984741211,2779096485
2.0110674491882325,0.38414273605346677,9.54191237335205,0.03463790513737106,0.1710843767544475,-1.0988092460443002,25.200000762939453,1932,0,-33.75,16.200000762939453,-74.8499984741211,2779096485
2.020389569091797,0.40507166366577146,9.56655873184204,0.0260983526605661,0.1673545930418126,-1.104018382442794,25.200000762939453,1933,0,-33.75,16.200000762939453,-74.8499984741211,2779096485
2.033655368041992,0.42666531677246095,9.59717146987915,0.02314237702894684,0.16425127136599457,-1.1100640776550572,25.200000762939453,1934,0,-33.75,16.200000762939453,-74.8499984741211,2779096485
2.1057088676452635,0.4148302795410156,9.664965619659423,0.012271100533649902,0.14680857834706024,-1.1308832261493311,25.200000762939453,1938,0,-33.599998474121094,16.5,-75.1500015258789,2779096485
2.1384192611694335,0.4327107261657715,9.661248300933838,0.016816077850355837,0.14351214420402497,-1.1384033804889837,25.200000762939453,1939,0,-33.599998474121094,17.399999618530273,-75.1500015258789,2779096485
2.174293689727783,0.4413291664123535,9.646441980743408,0.019632357367955017,0.1360124762309169,-1.1452686502052811,25.200000762939453,1940,0,-33.599998474121094,17.399999618530273,-75.1500015258789,2779096485
2.2073270439147947,0.43175350799560547,9.611149322509766,0.02139764034228531,0.13011115763825745,-1.153946880136996,25.200000762939453,1941,0,-33.599998474121094,17.399999618530273,-75.1500015258789,2779096485
2.233937933349609,0.39747130279541015,9.55649880065918,0.02534671539547302,0.12366089496967789,-1.1641701229907948,25.200000762939453,1942,0,-33.599998474121094,17.399999618530273,-75.1500015258789,2779096485
2.2537201805114746,0.3624547256469726,9.500460957336426,0.026869058158933104,0.11593266119758454,-1.1692182979341104,25.299999237060547,1943,0,-32.70000076293945,17.25,-75.44999694824219,2779096485
2.284984671783447,0.33755879135131833,9.457054991912841,0.02846875243572296,0.11015529943701095,-1.1759037643306467,25.299999237060547,1944,0,-32.70000076293945,17.25,-75.44999694824219,2779096485
2.307288172912598,0.3412622779846191,9.400714038848877,0.026655898746748046,0.10459339406504685,-1.186472312649012,25.299999237060547,1945,0,-32.70000076293945,17.25,-75.44999694824219,2779096485
2.3316484313964843,0.352912825012207,9.336098653411865,0.02212774595011307,0.09901185453808106,-1.1969413186644169,25.299999237060547,1946,0,-32.70000076293945,17.25,-75.44999694824219,2779096485
2.3436019386291504,0.357721346282959,9.27908112411499,0.014367634139990539,0.09321010487999268,-1.2108394774548692,25.200000762939453,1947,0,-33.150001525878906,17.399999618530273,-75.1500015258789,2779096485
2.322347134399414,0.3416754837036133,9.21452529144287,0.0057614094257536315,0.09018101881905044,-1.2222977878873154,25.200000762939453,1948,0,-33.150001525878906,17.399999618530273,-75.1500015258789,2779096485
2.288406394958496,0.31060423049926755,9.154518647003174,-0.005993390728813477,0.08673140630906921,-1.238633917507218,25.299999237060547,1949,0,-33.150001525878906,17.399999618530273,-75.1500015258789,2779096485
2.2184863273620605,0.27651705780029295,9.11829381790161,-0.022796991669548034,0.08163745828483246,-1.2493321151644603,25.299999237060547,1950,0,-33.150001525878906,17.399999618530273,-75.1500015258789,2779096485
2.1269928688049315,0.24857039947509765,9.09737894668579,-0.03814667311265915,0.07949286127904892,-1.2572396728873219,25.299999237060547,1951,0,-33.0,18.299999237060547,-75.1500015258789,2779096485
2.0297151657104493,0.2314305679321289,9.108218634033204,-0.05619827127904465,0.07609446135647796,-1.2645901239455781,25.299999237060547,1952,0,-33.0,18.299999237060547,-75.1500015258789,2779096485
1.9395797943115234,0.21850956192016602,9.141053591156005,-0.07643098504741043,0.07226063459867142,-1.2701204575430363,25.299999237060547,1953,0,-33.0,18.299999237060547,-75.1500015258789,2779096485
1.879221067047119,0.2074688232421875,9.197743748474121,-0.09806544033010087,0.07022845627963029,-1.2745656462143828,25.299999237060547,1954,0,-33.0,18.299999237060547,-75.1500015258789,2779096485
1.8277221687316894,0.17638889694213866,9.284122286224365,-0.11856198680794494,0.06643607496600326,-1.2751149431591449,25.299999237060547,1955,0,-33.150001525878906,17.399999618530273,-75.44999694824219,2779096485
1.7800931533813475,0.13722216873168944,9.402867807769775,-0.139535492117939,0.06479458237619186,-1.279112754059946,25.200000762939453,1956,0,-33.150001525878906,17.399999618530273,-75.44999694824219,2779096485
1.7417957534790038,0.11464116592407227,9.534283750152587,-0.15926995508138594,0.06316687164492692,-1.2751455229061517,25.100000381469727,1957,0,-33.150001525878906,17.399999618530273,-75.44999694824219,2779096485
1.7112569984436035,0.09743217391967773,9.680332962036132,-0.1742995045899614,0.06327783890888519,-1.2773581703352217,25.100000381469727,1958,0,-32.54999923706055,19.049999237060547,-75.30000305175781,2779096485
1.6882168075561523,0.0980072525024414,9.83005859451294,-0.1867577720837358,0.05959886165159714,-1.2781165320820211,25.200000762939453,1959,0,-32.54999923706055,19.049999237060547,-75.30000305175781,2779096485
1.6917350563049316,0.10069030456542968,9.98668259048462,-0.19136163189173874,0.0553269182658725,-1.2756403049437743,25.200000762939453,1960,0,-32.54999923706055,19.049999237060547,-75.30000305175781,2779096485
1.7106802001953125,0.0982357063293457,10.150637483215332,-0.1932811252079303,0.05514869952694916,-1.2752708046608707,25.200000762939453,1961,0,-32.54999923706055,19.049999237060547,-75.30000305175781,2779096485
1.75549864654541,0.08731317596435546,10.306565575408936,-0.18748857011344222,0.05259684527216675,-1.275371299043914,25.200000762939453,1962,0,-32.400001525878906,18.75,-75.1500015258789,2779096485
1.8083627723693847,0.08564775466918945,10.457097992706299,-0.18041370296289339,0.05069885698162979,-1.2779246313530914,25.200000762939453,1963,0,-32.400001525878906,18.75,-75.1500015258789,2779096485
1.869165397644043,0.08864655227661132,10.591890386199951,-0.16627935507488784,0.052120392440620424,-1.2812385558064656,25.200000762939453,1964,0,-32.400001525878906,18.75,-75.1500015258789,2779096485
1.9392544036865234,0.09675485000610351,10.696677158355712,-0.149075234682666,0.05193375145480759,-1.2862774762650568,25.299999237060547,1965,0,-32.400001525878906,18.75,-75.1500015258789,2779096485
2.0038619384765624,0.11290280838012695,10.775318061065674,-0.1309054920332338,0.05191283898249145,-1.2941271634978286,25.299999237060547,1966,0,-31.649999618530273,19.5,-75.30000305175781,2779096485
2.0507270484924316,0.10278553009033203,10.846152953338622,-0.10935870801302627,0.05598161646795288,-1.3035430224673992,25.299999237060547,1967,0,-31.649999618530273,19.5,-75.30000305175781,2779096485
2.0761117790222166,0.07324829330444335,10.923106303405762,-0.08684811934303986,0.05690081982768219,-1.3132230603573873,25.299999237060547,1968,0,-31.649999618530273,19.5,-75.30000305175781,2779096485
2.0827437812805174,0.04390571517944336,10.965733821105957,-0.0643593419622313,0.06012692654471451,-1.3227307318049075,25.200000762939453,1969,0,-31.649999618530273,19.5,-75.30000305175781,2779096485
2.095401491546631,0.04015789108276367,10.994560424804687,-0.037665799433733674,0.06491750723336243,-1.3322575580384364,25.200000762939453,1970,0,-31.350000381469727,20.25,-75.75,2779096485
2.103230605316162,0.04440120315551758,10.993466867065429,-0.011324160351358033,0.07086469877548325,-1.3428738235453053,25.200000762939453,1971,0,-31.350000381469727,20.25,-75.75,2779096485
2.096296726989746,0.04243484039306641,10.94752936706543,0.014695728926130828,0.07638780189063156,-1.3558406416194437,25.299999237060547,1972,0,-31.350000381469727,20.25,-75.75,2779096485
2.0642290771484375,0.0244485595703125,10.882429484558106,0.041831715719288176,0.07919260984191406,-1.366901395367095,25.299999237060547,1973,0,-31.350000381469727,20.25,-75.75,2779096485
2.0099873123168943,-0.014668335723876953,10.784835549926758,0.06907678558994552,0.08148728928989761,-1.378865326902726,25.299999237060547,1974,0,-32.54999923706055,19.950000762939453,-75.75,2779096485
1.9414116493225098,-0.06470043411254883,10.670284105682372,0.09280183562978653,0.0815750670788234,-1.3894526238750367,25.299999237060547,1975,0,-32.54999923706055,19.950000762939453,-75.75,2779096485
1.8793121345520019,-0.08042905578613281,10.551078125,0.11933672033743302,0.07840554587666367,-1.3951480668010423,25.200000762939453,1976,0,-32.54999923706055,19.950000762939453,-75.75,2779096485
1.8272427558898925,-0.05438745040893554,10.41563719329834,0.13889500188017653,0.07524495957989975,-1.4000041079888346,25.200000762939453,1977,0,-32.54999923706055,19.950000762939453,-75.75,2779096485
1.788934365081787,-0.014902621459960937,10.273661046600342,0.156692461243385,0.06770254787158966,-1.4050172557061535,25.299999237060547,1978,0,-31.5,20.549999237060547,-75.0,2779096485
1.7471981575012205,0.019741872406005858,10.141801654815673,0.1703673605832875,0.06040049976581283,-1.4087500487907996,25.299999237060547,1979,0,-31.5,20.549999237060547,-75.0,2779096485
1.7051272506713866,0.011460897827148438,10.00924751815796,0.18060236795112075,0.052290109037822115,-1.4144618302099807,25.299999237060547,1980,0,-31.5,20.549999237060547,-75.0,2779096485
1.658061986541748,-0.0163568603515625,9.874837226867676,0.18462584506675125,0.04571668848547821,-1.4159018613226149,25.299999237060547,1981,0,-31.5,20.549999237060547,-75.0,2779096485
1.6176707069396972,-0.029627220153808594,9.754939978027343,0.18769047767009903,0.03706833922098846,-1.4176030752994608,25.200000762939453,1982,0,-31.350000381469727,21.450000762939453,-74.55000305175781,2779096485
1.5875919624328614,-0.017947027587890626,9.64271109161377,0.1830971772957457,0.026102141007190705,-1.4198123604876778,25.200000762939453,1983,0,-31.350000381469727,21.450000762939453,-74.55000305175781,2779096485
1.5820981544494628,0.0034894256591796874,9.555082843017578,0.18129020919273942,0.01532352920138626,-1.4203117564518575,25.200000762939453,1984,0,-31.350000381469727,21.450000762939453,-74.55000305175781,2779096485
1.5819856285095215,0.005674185943603516,9.493653997802735,0.1753733910026422,0.002101513717544861,-1.4197023453038027,25.100000381469727,1985,0,-31.350000381469727,21.450000762939453,-74.55000305175781,2779096485
1.5935454818725585,-0.011187321472167968,9.462593436431884,0.16780507339500642,-0.009431192119441377,-1.4228052541896545,25.100000381469727,1986,0,-31.649999618530273,20.850000381469727,-75.1500015258789,2779096485
1.6274363510131835,-0.02463843307495117,9.436281955718993,0.16040285714341737,-0.020056006373350678,-1.4235578302190255,25.100000381469727,1987,0,-31.649999618530273,20.850000381469727,-75.1500015258789,2779096485
1.6579594047546387,-0.027338382720947265,9.421833026885986,0.15424691372068527,-0.028832160737675017,-1.42431990707552,25.299999237060547,1988,0,-31.649999618530273,20.850000381469727,-75.1500015258789,2779096485
1.679095888519287,-0.026730294036865235,9.403483335876464,0.1493653394761174,-0.03544556199560898,-1.4283551487051849,25.299999237060547,1989,0,-31.649999618530273,20.850000381469727,-75.1500015258789,2779096485
1.6961068199157714,-0.020624808502197264,9.361195078277587,0.14642074885807999,-0.04250076170164276,-1.435020867762374,25.299999237060547,1990,0,-30.75,21.75,-75.44999694824219,2779096485
1.7098543869018554,-0.009190901947021483,9.29071967086792,0.1434746935014531,-0.0488497843020787,-1.443047322311285,25.299999237060547,1991,0,-30.75,21.75,-75.44999694824219,2779096485
1.723910147857666,0.012304094696044921,9.210290988922118,0.14044654620478866,-0.05724897487459564,-1.4495269263569728,25.299999237060547,1992,0,-30.75,21.75,-75.44999694824219,2779096485
1.726557797241211,0.0426130126953125,9.129825745391845,0.1397751632985936,-0.06565802580098083,-1.457463505877614,25.299999237060547,1993,0,-30.75,21.75,-75.44999694824219,2779096485
1.7323336677551269,0.07432558898925781,9.054237660217284,0.13603094525294968,-0.07292251001984024,-1.4643980044659721,25.299999237060547,1994,0,-30.899999618530273,21.600000381469727,-74.25,2779096485
1.7391252624511717,0.10586436691284179,8.975316900634766,0.12932617093864304,-0.08063471822018417,-1.4719542712697582,25.200000762939453,1995,0,-30.899999618530273,21.600000381469727,-74.25,2779096485
1.7365631103515624,0.1373914810180664,8.907678679656982,0.11834386725826371,-0.08438050753086045,-1.4787847734182633,25.200000762939453,1996,0,-30.899999618530273,21.600000381469727,-74.25,2779096485
1.7314770126342773,0.15923983154296875,8.855587767791748,0.10439544796048432,-0.08789419569622864,-1.489680544337518,25.200000762939453,1997,0,-30.899999618530273,21.600000381469727,-74.25,2779096485
1.708938291168213,0.16678811645507813,8.797781659698487,0.08624855523304795,-0.0916883413540657,-1.4992934505947895,25.200000762939453,1998,0,-30.450000762939453,22.5,-74.69999694824219,2779096485
1.6750027854919434,0.15107433624267577,8.761941773986816,0.064855622027957,-0.09118767373047425,-1.5087292566407877,25.200000762939453,1999,0,-30.450000762939453,22.5,-74.69999694824219,2779096485
1.6340314178466797,0.1390351448059082,8.751394803619384,0.04199611265224899,-0.09137913503782699,-1.5181569067560037,25.200000762939453,2000,0,-30.450000762939453,22.5,-74.69999694824219,2779096485
1.5925910301208495,0.12504252548217773,8.758189800262452,0.018524455730484925,-0.09146026158197601,-1.5250474165813586,25.200000762939453,2001,0,-30.450000762939453,22.5,-74.69999694824219,2779096485
1.5521531326293945,0.11316359939575195,8.785170417785645,-0.00739694985056961,-0.08921698114267776,-1.5325714258466627,25.200000762939453,2002,0,-30.299999237060547,23.549999237060547,-74.69999694824219,2779096485
1.4995352180480956,0.10086215896606444,8.837909942626952,-0.02920954397735123,-0.08785241069901245,-1.5394725816584023,25.299999237060547,2003,0,-30.299999237060547,23.549999237060547,-74.69999694824219,2779096485
1.4252750137329102,0.0774632682800293,8.903499443817138,-0.0503959290676178,-0.08705563951165543,-1.5424796500351836,25.299999237060547,2004,0,-30.299999237060547,23.549999237060547,-74.69999694824219,2779096485
1.3386199089050292,0.023326889038085937,8.978863262176514,-0.06750403584529938,-0.08529877212631196,-1.5448712152829585,25.299999237060547,2005,0,-30.299999237060547,23.399999618530273,-74.8499984741211,2779096485
1.2421606544494628,-0.04017138671875,9.057018060302735,-0.08224496527272095,-0.0874839490489267,-1.5469855188315504,25.299999237060547,2006,0,-30.299999237060547,23.399999618530273,-74.8499984741211,2779096485
1.1568959365844727,-0.08951789932250977,9.137274327087402,-0.09086129002532257,-0.08705993385888366,-1.543515140323112,25.399999618530273,2007,0,-30.299999237060547,23.399999618530273,-74.8499984741211,2779096485
1.1051349388122558,-0.07875290527343749,9.196986572265624,-0.10097930472727265,-0.08928027782345123,-1.5396690563664726,25.399999618530273,2008,0,-30.299999237060547,23.399999618530273,-74.8499984741211,2779096485
1.073362996673584,-0.04326816787719726,9.260482305908203,-0.10297742121620575,-0.09293166473203568,-1.5362989258986786,25.399999618530273,2009,0,-30.149999618530273,23.700000762939453,-75.30000305175781,2779096485
1.0597956581115722,-0.0012173736572265626,9.32756212158203,-0.10608833290107834,-0.09674437262254303,-1.5349156600642895,25.5,2010,0,-30.149999618530273,23.700000762939453,-75.30000305175781,2779096485
1.0550093803405762,0.026703863525390625,9.40062409286499,-0.10709327673151352,-0.10313054631993027,-1.5315383590353095,25.5,2011,0,-30.149999618530273,23.700000762939453,-75.30000305175781,2779096485
1.0475667053222657,0.02473316421508789,9.46876251220703,-0.10883058985668748,-0.10436611324127869,-1.5299884192652433,25.5,2012,0,-30.149999618530273,23.700000762939453,-75.30000305175781,2779096485
1.0459655471801756,0.02122983169555664,9.534508353424071,-0.11068986910104614,-0.10618981265371842,-1.5268980538680395,25.399999618530273,2013,0,-30.299999237060547,24.600000381469727,-75.1500015258789,2779096485
1.0535698333740233,0.000518890380859375,9.590265480041504,-0.11178164529822662,-0.10663410781532302,-1.5273472825355294,25.200000762939453,2014,0,-30.299999237060547,24.600000381469727,-75.1500015258789,2779096485
1.0680045188903808,-0.0010519866943359375,9.645991353607178,-0.11029488902458817,-0.10788233806756775,-1.5266236683828143,25.200000762939453,2015,0,-30.299999237060547,24.600000381469727,-75.1500015258789,2779096485
1.0943597389221191,0.0023891387939453126,9.695121001434325,-0.10924933198780838,-0.10742526639072128,-1.525723406756208,25.200000762939453,2016,0,-30.299999237060547,24.600000381469727,-75.1500015258789,2779096485
1.1323326828002929,0.008968990325927734,9.749826290893555,-0.10619886074345977,-0.1059917333911023,-1.5262823443440499,25.200000762939453,2017,0,-29.25,23.700000762939453,-74.69999694824219,2779096485
1.1714072593688964,0.022648854827880857,9.811315473937988,-0.10061503089797226,-0.10382087095924836,-1.5258564183359378,25.200000762939453,2018,0,-29.25,23.700000762939453,-74.69999694824219,2779096485
1.2036126693725586,0.03244825668334961,9.881559100341796,-0.09815112087968261,-0.10130618777512528,-1.5311247101997385,25.299999237060547,2019,0,-29.25,23.700000762939453,-74.69999694824219,2779096485
1.2254858055114746,0.03242601318359375,9.93982589187622,-0.09438941918160249,-0.09656136685159317,-1.536948870358246,25.299999237060547,2020,0,-29.25,23.700000762939453,-74.69999694824219,2779096485
1.2385277862548827,0.022587470245361327,9.983530742645263,-0.0879410739889946,-0.09273082909771027,-1.5408784044670694,25.299999237060547,2021,0,-28.649999618530273,24.299999237060547,-74.69999694824219,2779096485
1.2347831024169922,0.014963968658447265,10.01255372467041,-0.07782893821511047,-0.08853113727186294,-1.5440070195151667,25.299999237060547,2022,0,-28.649999618530273,24.299999237060547,-74.69999694824219,2779096485
1.2319191864013672,-0.004909271240234375,10.017562437438965,-0.07186177296495133,-0.08496559070252457,-1.5484790528501167,25.200000762939453,2023,0,-28.649999618530273,24.299999237060547,-74.69999694824219,2779096485
1.2142638290405272,-0.034538248443603516,10.013007903289795,-0.060022910131153566,-0.08494618957411668,-1.5518718268449234,25.200000762939453,2024,0,-28.649999618530273,24.299999237060547,-74.69999694824219,2779096485
1.2068085556030272,-0.07106128997802734,9.98508307723999,-0.04929354017356628,-0.08290311892629196,-1.5555383005609795,25.200000762939453,2025,0,-29.700000762939453,24.899999618530273,-75.0,2779096485
1.1851201713562012,-0.09851459121704101,9.940096028900147,-0.03624423734313233,-0.08652656261733079,-1.5581049553334183,25.399999618530273,2026,0,-29.700000762939453,24.899999618530273,-75.0,2779096485
1.1782811363220214,-0.11180625991821289,9.867766298675537,-0.02129023505626053,-0.09231693391974,-1.5583170960864934,25.399999618530273,2027,0,-29.700000762939453,24.899999618530273,-75.0,2779096485
1.1729646781921386,-0.11024454193115234,9.78233484802246,-0.009749373288491974,-0.10148639056904708,-1.5610417229158073,25.399999618530273,2028,0,-29.700000762939453,24.899999618530273,-75.0,2779096485
1.1696577987670898,-0.10793865737915039,9.691855207061767,0.0015085209574975586,-0.10852955944493912,-1.5636828663034237,25.399999618530273,2029,0,-29.100000381469727,25.950000762939453,-75.1500015258789,2779096485
1.16051138381958,-0.10479843597412108,9.595299277496338,0.011402111075928955,-0.12009070784217193,-1.5636766544802239,25.399999618530273,2030,0,-29.100000381469727,25.950000762939453,-75.1500015258789,2779096485
1.1563197738647462,-0.08149636993408203,9.496624346160889,0.016404619464766235,-0.1298801217573781,-1.5657423220497426,25.399999618530273,2031,0,-29.100000381469727,25.950000762939453,-75.1500015258789,2779096485
1.1592893371582031,-0.05190148696899414,9.403439073181152,0.01913487222184433,-0.14202405634985063,-1.5680638661350377,25.399999618530273,2032,0,-29.100000381469727,25.950000762939453,-75.1500015258789,2779096485
1.16784609375,-0.035850689697265625,9.31749800338745,0.02246309119227127,-0.151648241094261,-1.568404424514994,25.299999237060547,2033,0,-28.5,25.200000762939453,-75.5999984741211,2779096485
1.1656653709411622,-0.02561090393066406,9.230713325500489,0.019173221741277925,-0.16038755728306,-1.5726181645154949,25.299999237060547,2034,0,-28.5,25.200000762939453,-75.5999984741211,2779096485
1.1632726058959961,-0.011053524017333984,9.138519065856933,0.014911664683733216,-0.16722362543820526,-1.573303941807283,25.299999237060547,2035,0,-28.5,25.200000762939453,-75.5999984741211,2779096485
1.1500704719543458,-0.0008093643188476562,9.060621731567382,0.009597246870169373,-0.17732281159137786,-1.5746995979985585,25.299999237060547,2036,0,-28.5,25.200000762939453,-75.5999984741211,2779096485
1.1332199554443358,0.013212152862548827,9.010028648376464,0.000984450805987854,-0.18641168764455568,-1.577173148659928,25.299999237060547,2037,0,-27.899999618530273,25.350000381469727,-75.44999694824219,2779096485
1.1284475471496582,0.026626441192626953,8.972027068328858,-0.009983178856885986,-0.19268605518224702,-1.5774748115724309,25.299999237060547,2038,0,-27.899999618530273,25.350000381469727,-75.44999694824219,2779096485
1.1309301460266112,0.046862866973876954,8.96004040145874,-0.021265387763460847,-0.20043078723718002,-1.577678496789103,25.299999237060547,2039,0,-27.899999618530273,25.350000381469727,-75.44999694824219,2779096485
1.1420516342163085,0.07314391708374023,8.953753229522706,-0.036090892528619384,-0.20376995179961196,-1.5783396398409772,25.299999237060547,2040,0,-27.899999618530273,25.350000381469727,-75.44999694824219,2779096485
1.1683764236450196,0.08658990707397461,8.95994832458496,-0.045330643314416046,-0.2073727959397606,-1.5790192785464947,25.299999237060547,2041,0,-27.75,26.700000762939453,-74.55000305175781,2779096485
1.1971585777282714,0.10542917938232421,8.963881872558593,-0.05570957456447083,-0.2092740399447078,-1.5798820295494052,25.299999237060547,2042,0,-27.75,26.700000762939453,-74.55000305175781,2779096485
1.2461580169677735,0.12448172760009765,8.965834104156494,-0.06007009468744278,-0.21051807571826447,-1.5779609516523758,25.299999237060547,2043,0,-27.75,26.700000762939453,-74.55000305175781,2779096485
1.303556788635254,0.14331098098754882,8.970943006134032,-0.0660887654727301,-0.2112543731755841,-1.5794768029607233,25.299999237060547,2044,0,-27.75,26.700000762939453,-74.55000305175781,2779096485
1.3575706604003905,0.1675978172302246,8.978325605010985,-0.06916684038158767,-0.20823471470483598,-1.579477288987619,25.299999237060547,2045,0,-27.75,27.299999237060547,-75.0,2779096485
1.4052908554077148,0.18525351104736326,8.98832732925415,-0.07022729780456406,-0.20658365470887421,-1.5835545552989967,25.200000762939453,2046,0,-27.75,27.299999237060547,-75.0,2779096485
1.444216830444336,0.19810834732055663,9.010561782073975,-0.07321069733731994,-0.2005882998987703,-1.5849234933268197,25.200000762939453,2047,0,-27.75,27.299999237060547,-75.0,2779096485
1.474420400238037,0.21328566665649412,9.029936991882323,-0.07762611852578659,-0.19263296506628114,-1.588827614221116,25.299999237060547,2048,0,-27.75,27.299999237060547,-75.0,2779096485
1.5038424942016602,0.23733937606811523,9.039897817993165,-0.07981566303255905,-0.18179447874168045,-1.5946525267226261,25.299999237060547,2049,0,-27.299999237060547,26.549999237060547,-74.25,2779096485
1.521330558013916,0.2683589645385742,9.047796503448486,-0.08298643592042251,-0.17105611395757325,-1.5973051816239752,25.299999237060547,2050,0,-27.299999237060547,26.549999237060547,-74.25,2779096485
1.5431053741455079,0.29972166366577147,9.06581859817505,-0.08606786641223053,-0.16069843473287124,-1.6025827679199165,25.299999237060547,2051,0,-27.299999237060547,26.549999237060547,-74.25,2779096485
1.5584640434265136,0.31354579315185543,9.07849156112671,-0.09002566997583099,-0.14874376433986725,-1.609855035227008,25.299999237060547,2052,0,-27.299999237060547,26.549999237060547,-74.25,2779096485
1.5667813179016112,0.3129663780212402,9.095255047607422,-0.09223881674760208,-0.13643621178904738,-1.6180401009914513,25.299999237060547,2053,0,-27.299999237060547,27.450000762939453,-73.94999694824219,2779096485
1.5838403251647948,0.2911158218383789,9.113294974517823,-0.09140147895921921,-0.12475268448266373,-1.6250566182829176,25.299999237060547,2054,0,-27.299999237060547,27.450000762939453,-73.94999694824219,2779096485
1.594405239868164,0.2639158721923828,9.12588505706787,-0.09040270700456787,-0.11390011669389603,-1.6317091280611906,25.200000762939453,2055,0,-27.299999237060547,27.450000762939453,-73.94999694824219,2779096485
1.6230673164367675,0.2665574653625488,9.118786277770996,-0.08764005023514893,-0.10229844830095612,-1.639094053739521,25.200000762939453,2056,0,-26.549999237060547,27.149999618530273,-74.8499984741211,2779096485
1.6550822174072266,0.2864479019165039,9.091786407470703,-0.08233922120095383,-0.09312975065255448,-1.6481091668889134,25.200000762939453,2057,0,-26.549999237060547,27.149999618530273,-74.8499984741211,2779096485
1.6753621208190916,0.30477235870361324,9.037939904022217,-0.07464381754697282,-0.0884078195984343,-1.658202680509003,25.299999237060547,2058,0,-26.549999237060547,27.149999618530273,-74.8499984741211,2779096485
1.6757164840698242,0.2994489845275879,8.980037195587158,-0.06291652118837449,-0.08639851783299973,-1.6660396511476572,25.299999237060547,2059,0,-26.549999237060547,27.149999618530273,-74.8499984741211,2779096485
1.6529115509033203,0.2679234031677246,8.909572592163086,-0.05330862833182068,-0.0881730353183464,-1.675574600022455,25.299999237060547,2060,0,-27.0,27.149999618530273,-74.4000015258789,2779096485
1.6079792701721192,0.23242483367919922,8.822208125305176,-0.043281101185186924,-0.09106917637858551,-1.6862849283783792,25.299999237060547,2061,0,-27.0,27.149999618530273,-74.4000015258789,2779096485
1.5581772705078125,0.20904594345092772,8.716771020507812,-0.03497271108941223,-0.09796884747802749,-1.6960691824190086,25.200000762939453,2062,0,-27.0,27.149999618530273,-74.4000015258789,2779096485
1.505893307495117,0.19522577667236327,8.607712412261963,-0.029003515178935853,-0.10907904946887893,-1.7060114418060268,25.200000762939453,2063,0,-27.0,27.149999618530273,-74.4000015258789,2779096485
1.4499398399353027,0.18737086791992186,8.495879983520508,-0.025841757091300353,-0.12030706304764313,-1.7157629456233763,25.200000762939453,2064,0,-26.549999237060547,27.899999618530273,-75.5999984741211,2779096485
1.391874772644043,0.16276458511352537,8.384098845672607,-0.028604094281390685,-0.1336618171372046,-1.722769709087417,25.100000381469727,2065,0,-26.549999237060547,27.899999618530273,-75.5999984741211,2779096485
1.3164874397277833,0.12281675491333008,8.29169889907837,-0.03492894869510025,-0.1487169329920691,-1.7310254751204133,25.100000381469727,2066,0,-26.549999237060547,27.899999618530273,-75.5999984741211,2779096485
1.2347876632690429,0.09502198791503906,8.213916072082519,-0.0466556857898735,-0.16355943538276826,-1.736818016899096,25.200000762939453,2067,0,-26.549999237060547,27.899999618530273,-75.5999984741211,2779096485
1.1611061264038085,0.08200737228393555,8.176344034576415,-0.06082830330248047,-0.17570593992567504,-1.7427924725526893,25.200000762939453,2068,0,-26.850000381469727,28.649999618530273,-74.69999694824219,2779096485
1.086230094909668,0.07308698120117187,8.169110934448241,-0.07972984266702103,-0.18768564403275376,-1.7464878149347633,25.200000762939453,2069,0,-26.850000381469727,28.649999618530273,-74.69999694824219,2779096485
1.0111010482788085,0.06506634902954102,8.197865648651122,-0.10404094127441467,-0.1983085674423021,-1.7492634546144072,25.299999237060547,2070,0,-26.850000381469727,28.649999618530273,-74.69999694824219,2779096485
0.9334993095397949,0.038900479125976564,8.248614099884033,-0.12736344120245116,-0.20463748317664612,-1.7514224326899783,25.399999618530273,2071,0,-26.850000381469727,28.649999618530273,-74.69999694824219,2779096485
0.8588201049804687,-0.00037813949584960936,8.32421463394165,-0.15439963269234636,-0.20834431709874496,-1.7527640799747184,25.399999618530273,2072,0,-26.25,28.649999618530273,-74.4000015258789,2779096485
0.7970354759216308,-0.04318461456298828,8.426529274749756,-0.17933390433263321,-0.20949468949740724,-1.7522199628782409,25.399999618530273,2073,0,-26.25,28.649999618530273,-74.4000015258789,2779096485
0.7575684043884278,-0.09434840240478515,8.543538719177246,-0.2081359846660025,-0.2082448813222275,-1.7494982788419111,25.399999618530273,2074,0,-26.25,28.649999618530273,-74.4000015258789,2779096485
0.7497915534973144,-0.14577496261596679,8.701411192321777,-0.23240300129975555,-0.206174306878434,-1.7457086405841882,25.399999618530273,2075,0,-26.25,28.649999618530273,-74.4000015258789,2779096485
0.7729751121520996,-0.17532412490844726,8.871609293365479,-0.25590071059470426,-0.19878671803903167,-1.7390427284478214,25.399999618530273,2076,0,-25.950000762939453,28.5,-75.44999694824219,2779096485
0.8182951400756836,-0.1894337188720703,9.048416218566894,-0.27828672324765563,-0.19020940859613159,-1.7360981111981733,25.399999618530273,2077,0,-25.950000762939453,28.5,-75.44999694824219,2779096485
0.8716090705871582,-0.2160438232421875,9.2281543510437,-0.29857262034262483,-0.17819158799621307,-1.7328101592231515,25.299999237060547,2078,0,-25.950000762939453,28.5,-75.44999694824219,2779096485
0.9121331008911132,-0.27359179458618166,9.406155471801757,-0.31289546677129076,-0.16480197312822203,-1.7335309504251308,25.299999237060547,2079,0,-25.950000762939453,28.5,-75.44999694824219,2779096485
0.9477718605041504,-0.33796904373168946,9.573763719177245,-0.3251486708625383,-0.1517342678547821,-1.7354358163291357,25.299999237060547,2080,0,-25.200000762939453,29.25,-74.69999694824219,2779096485
0.9823388198852538,-0.3907914863586426,9.732471239471435,-0.3305137153680766,-0.13634373352082993,-1.7392743369083312,25.299999237060547,2081,0,-25.200000762939453,29.25,-74.69999694824219,2779096485
1.0290897590637207,-0.43706177902221677,9.87995588607788,-0.3350971354148537,-0.11960777687131852,-1.7432108484991629,25.299999237060547,2082,0,-25.200000762939453,29.25,-74.69999694824219,2779096485
1.068219514465332,-0.4635131507873535,9.998522674560547,-0.3338420608386545,-0.10385783563492462,-1.7456251638003932,25.299999237060547,2083,0,-25.200000762939453,29.25,-74.69999694824219,2779096485
