accelX,accelY,accelZ,gyroX,gyroY,gyroZ,temp,dataCNT,pad,magX,magY,magZ,pad
0.0,0.0,0.0,0.0,0.0,0.0,0.0,0,0,9.449999809265137,20.700000762939453,-76.6500015258789,2779096485
-0.3415346206665039,-0.17121337661743163,8.877206243896484,-0.12636216587639237,-0.11231646796256363,0.26716636795521803,23.299999237060547,1483,0,9.449999809265137,20.700000762939453,-76.6500015258789,2779096485
-0.4460021331787109,-0.25005977935791013,9.14338773803711,-0.0829752373281157,-0.09548018337757569,0.3246348805127657,23.299999237060547,1485,0,10.050000190734863,21.149999618530273,-77.0999984741211,2779096485
-0.4215316291809082,-0.24295404663085937,9.192125339508056,-0.0638084204892154,-0.08129702640502716,0.3523173612736571,23.299999237060547,1486,0,10.050000190734863,21.149999618530273,-77.0999984741211,2779096485
-0.3679274864196777,-0.2132230110168457,9.195111127471923,-0.045101484962092285,-0.06401353715496369,0.37854032324077164,23.299999237060547,1487,0,10.050000190734863,21.149999618530273,-77.0999984741211,2779096485
-0.2768485794067383,-0.1849951873779297,9.175688626861572,-0.025930953013496856,-0.04185866690933456,0.4068224546643898,23.200000762939453,1488,0,9.449999809265137,20.700000762939453,-76.6500015258789,2779096485
-0.19180083847045898,-0.16874520797729492,9.129843128967284,-0.009156060949116059,-0.021993449395166016,0.43195596404235903,23.100000381469727,1489,0,9.449999809265137,20.700000762939453,-76.6500015258789,2779096485
-0.08641835174560547,-0.1602679298400879,9.130518695831299,0.007090886064395599,0.001790276740988922,0.4526413552718028,23.100000381469727,1490,0,9.449999809265137,20.700000762939453,-76.6500015258789,2779096485
-0.013813961029052734,-0.15214351959228514,9.100570085144042,0.021547569652723694,0.026294114973049773,0.4749650166661612,23.299999237060547,1491,0,9.449999809265137,20.700000762939453,-76.6500015258789,2779096485
0.058918843841552736,-0.13471112060546875,9.15512759552002,0.036603045034332884,0.0502882374917778,0.49312175643166045,23.399999618530273,1492,0,8.850000381469727,20.399999618530273,-77.0999984741211,2779096485
0.1324460968017578,-0.16490579299926758,9.168783197784423,0.05344948957880966,0.07895406384681229,0.5075403435008567,23.399999618530273,1493,0,8.850000381469727,20.399999618530273,-77.0999984741211,2779096485
0.17333260269165038,-0.137307852935791,9.22340710220337,0.07481130374677689,0.10746212453995468,0.5185909239732138,23.299999237060547,1494,0,8.850000381469727,20.399999618530273,-77.0999984741211,2779096485
0.2415176773071289,-0.09021499938964843,9.247682648468018,0.09450339581757188,0.140345452610504,0.5273683100495339,23.200000762939453,1495,0,8.850000381469727,20.399999618530273,-77.0999984741211,2779096485
0.3085952125549316,-0.08326728897094726,9.219950611877442,0.11606165140409606,0.17090694364804032,0.5318944055542408,23.200000762939453,1496,0,9.449999809265137,21.450000762939453,-77.25,2779096485
0.36555666580200197,-0.04503347930908203,9.163581620788573,0.13779205372229997,0.20227900770518814,0.5367792421711217,23.200000762939453,1497,0,9.449999809265137,21.450000762939453,-77.25,2779096485
0.42185466461181637,-0.0009510498046874999,9.100356136322022,0.16206861113059265,0.22928912019028794,0.5346985743468662,23.200000762939453,1498,0,9.449999809265137,21.450000762939453,-77.25,2779096485
0.4591730140686035,0.03365695724487305,9.06139748764038,0.1808372321260408,0.2596937443827939,0.531538573945538,23.200000762939453,1499,0,9.449999809265137,21.450000762939453,-77.25,2779096485
0.4996720718383789,0.11371707000732421,8.950797610473632,0.19875129799677704,0.2861128881102609,0.5228728209234442,23.299999237060547,1500,0,9.300000190734863,21.450000762939453,-76.80000305175781,2779096485
0.5543731369018554,0.16538430862426756,8.817314667510987,0.21004782805201538,0.311850988314745,0.5162260635730862,23.299999237060547,1501,0,9.300000190734863,21.450000762939453,-76.80000305175781,2779096485
0.5986797584533691,0.2248663429260254,8.681711339569091,0.2171453120979663,0.3353970206673412,0.49891511047447007,23.299999237060547,1502,0,9.300000190734863,21.450000762939453,-76.80000305175781,2779096485
0.6542798347473144,0.24484037017822266,8.564173509216308,0.21612827751626526,0.3576115457209781,0.48426284433703065,23.299999237060547,1503,0,9.300000190734863,21.450000762939453,-76.80000305175781,2779096485
0.7178669723510742,0.26938268890380856,8.488301753997803,0.2152031353073459,0.3792242163461014,0.4620065742335936,23.299999237060547,1504,0,9.0,20.850000381469727,-76.94999694824219,2779096485
0.7568713790893554,0.3017460090637207,8.389157316589355,0.21182631364735902,0.4002681422927359,0.4384921336292114,23.299999237060547,1505,0,9.0,20.850000381469727,-76.94999694824219,2779096485
0.842216397857666,0.3198952842712402,8.380946025848388,0.20572668942339234,0.4204602694863678,0.4141731853545587,23.299999237060547,1506,0,9.0,20.850000381469727,-76.94999694824219,2779096485
0.8851860916137695,0.3720301971435547,8.343443709564209,0.19565840259655504,0.43846064174953764,0.3880689870554401,23.399999618530273,1507,0,9.0,20.850000381469727,-76.94999694824219,2779096485
0.9329121559143067,0.4156086898803711,8.404320280456544,0.18627892240722488,0.45849047590745545,0.3588762143349384,23.399999618530273,1508,0,9.449999809265137,21.600000381469727,-76.94999694824219,2779096485
0.9218555290222168,0.43527250442504883,8.459913216400146,0.17934090844625197,0.4774487872081436,0.331036380702121,23.399999618530273,1509,0,9.449999809265137,21.600000381469727,-76.94999694824219,2779096485
0.8286703308105469,0.42968246994018555,8.53883087310791,0.1739616959238118,0.4953165873131604,0.30446108252521026,23.399999618530273,1510,0,9.449999809265137,21.600000381469727,-76.94999694824219,2779096485
0.6791229827880859,0.40967113342285155,8.726079794311524,0.1703286848266226,0.5145525930767055,0.27932414432736113,23.299999237060547,1511,0,9.449999809265137,21.600000381469727,-76.94999694824219,2779096485
0.4440291534423828,0.38284562225341795,8.850063117980957,0.16750333724557404,0.5278918009635104,0.26561481031480055,23.299999237060547,1512,0,10.5,21.75,-75.9000015258789,2779096485
0.20540380401611327,0.3054236259460449,8.932058303070068,0.16845101645506333,0.5374119759522625,0.2539892933144629,23.399999618530273,1513,0,10.5,21.75,-75.9000015258789,2779096485
-0.017051119232177735,0.26719071350097656,8.870939184570313,0.17056643853130554,0.5358832016548142,0.2501858931719014,23.399999618530273,1514,0,10.5,21.75,-75.9000015258789,2779096485
-0.23853671188354492,0.23397843933105467,8.795113598632812,0.17155706787097993,0.5249456856857594,0.2509452203145892,23.399999618530273,1515,0,10.5,21.75,-75.9000015258789,2779096485
-0.37741704940795895,0.2488330596923828,8.666627742004394,0.17695052164725145,0.49977822100412506,0.25527048018497084,23.399999618530273,1516,0,10.050000190734863,21.299999237060547,-77.25,2779096485
-0.4258983833312988,0.19169167709350585,8.590991207122803,0.17922632594113877,0.4660747458499112,0.2583689149602222,23.399999618530273,1517,0,10.050000190734863,21.299999237060547,-77.25,2779096485
-0.4976937088012695,0.19690611419677734,8.477608013916015,0.1762071867867996,0.42384491418200304,0.2606107439767363,23.399999618530273,1518,0,10.050000190734863,21.299999237060547,-77.25,2779096485
-0.535006600189209,0.20272837829589843,8.437916787719725,0.17496155977450256,0.3772329508390254,0.26114291679580687,23.399999618530273,1519,0,10.050000190734863,21.299999237060547,-77.25,2779096485
-0.5286188278198242,0.18518599548339842,8.446030954742431,0.17516476562218186,0.32671634062744004,0.2653011232300586,23.299999237060547,1520,0,10.5,21.600000381469727,-76.6500015258789,2779096485
-0.5164407173156738,0.19199347839355468,8.431986708068848,0.1708544460854129,0.2768201337612332,0.26386151156529325,23.299999237060547,1521,0,10.5,21.600000381469727,-76.6500015258789,2779096485
-0.4916763374328613,0.1913392951965332,8.47779796218872,0.16470408864302888,0.22951916404366807,0.26187590527549487,23.299999237060547,1522,0,10.5,21.600000381469727,-76.6500015258789,2779096485
-0.46193105850219723,0.19296165008544922,8.489137698364258,0.1562062479265106,0.18585028663272232,0.2611553204684987,23.399999618530273,1523,0,10.649999618530273,22.049999237060547,-76.3499984741211,2779096485
-0.43319514846801754,0.19049191131591797,8.511928276062012,0.14480281858585115,0.14574810095037583,0.2613362756054233,23.399999618530273,1524,0,10.649999618530273,22.049999237060547,-76.3499984741211,2779096485
-0.38851524734497067,0.18889613647460937,8.515042964172363,0.1322632381266527,0.10626751037798753,0.2608851760672803,23.399999618530273,1525,0,10.649999618530273,22.049999237060547,-76.3499984741211,2779096485
-0.3257386703491211,0.20486009063720703,8.49210090637207,0.11691536097516769,0.07011426659077515,0.26278584083469436,23.399999618530273,1526,0,10.649999618530273,22.049999237060547,-76.3499984741211,2779096485
-0.23731447830200195,0.21633313827514647,8.481428699493408,0.10339388634461029,0.03423970929391892,0.2666706804428308,23.299999237060547,1527,0,10.199999809265137,21.299999237060547,-76.3499984741211,2779096485
-0.10872514266967773,0.24554733963012695,8.465323321533203,0.08690218817069961,0.001485204982314148,0.26747683261506316,23.299999237060547,1528,0,10.199999809265137,21.299999237060547,-76.3499984741211,2779096485
0.02082391586303711,0.27548985671997067,8.497025729370117,0.07059631871847488,-0.02981377527712143,0.26746381641532485,23.399999618530273,1529,0,10.199999809265137,21.299999237060547,-76.3499984741211,2779096485
0.14970148239135742,0.28248411026000975,8.554086474609374,0.05322775478797348,-0.05744460402902573,0.267441112967188,23.399999618530273,1530,0,10.199999809265137,21.299999237060547,-76.3499984741211,2779096485
0.2813952629089355,0.26780455932617186,8.650946411132812,0.04010869711116699,-0.0782248104505275,0.26221750894617174,23.399999618530273,1531,0,9.899999618530273,22.049999237060547,-76.94999694824219,2779096485
0.40462522354125974,0.23905657424926757,8.760786943817138,0.026462246989413758,-0.09749260769936692,0.25554169650852065,23.399999618530273,1532,0,9.899999618530273,22.049999237060547,-76.94999694824219,2779096485
0.5415678344726562,0.22217304763793944,8.879638150024414,0.022123318444831237,-0.10511348944865692,0.24589518781642608,23.399999618530273,1533,0,9.899999618530273,22.049999237060547,-76.94999694824219,2779096485
0.7074803421020508,0.2204524101257324,9.007986358642578,0.018572452550901033,-0.11303912337729309,0.23190082899015854,23.399999618530273,1534,0,9.899999618530273,22.049999237060547,-76.94999694824219,2779096485
0.9038491729736328,0.2458410285949707,9.144145886230469,0.021463813237016297,-0.11289772284018708,0.2152304260504289,23.399999618530273,1535,0,10.5,21.75,-76.5,2779096485
1.0997772087097168,0.2456402389526367,9.294529365539551,0.02872303105485626,-0.10784502052304946,0.1921003195361203,23.399999618530273,1536,0,10.5,21.75,-76.5,2779096485
1.277644980621338,0.21863831253051758,9.433420806121825,0.04606554261217301,-0.09435070347752152,0.16238430224404113,23.399999618530273,1537,0,10.5,21.75,-76.5,2779096485
1.4263973197937012,0.14114390335083007,9.566107880401612,0.06696053793377106,-0.07127381357932969,0.13026810437811998,23.399999618530273,1538,0,10.5,21.75,-76.5,2779096485
1.5537306640625,0.05813863906860351,9.668870568847655,0.09270456367163986,-0.04304977235658966,0.09621319183097168,23.299999237060547,1539,0,10.199999809265137,21.75,-76.6500015258789,2779096485
1.701481410217285,-0.0022068168640136717,9.748149617004394,0.1230689674740593,-0.003246466583426056,0.05703337867002991,23.299999237060547,1540,0,10.199999809265137,21.75,-76.6500015258789,2779096485
1.870686890411377,-0.0073191581726074215,9.819894025421142,0.15717024565546722,0.042050134874589994,0.01990382669180664,23.299999237060547,1541,0,10.199999809265137,21.75,-76.6500015258789,2779096485
2.029819878387451,0.011541123962402344,9.88678254699707,0.19433061706519364,0.0933654004599907,-0.020877505011259154,23.399999618530273,1542,0,10.199999809265137,21.75,-76.6500015258789,2779096485
2.151868167114258,0.0323727783203125,9.925225894165038,0.2337369187594847,0.14821260352200394,-0.06548332909257493,23.399999618530273,1543,0,10.350000381469727,22.200000762939453,-76.94999694824219,2779096485
2.2122104827880857,0.03930467529296875,9.947726969909668,0.27408263720603987,0.20827767815082643,-0.10739483311757354,23.399999618530273,1544,0,10.350000381469727,22.200000762939453,-76.94999694824219,2779096485
2.244123474884033,0.04646667098999023,9.9512587890625,0.3101258724672798,0.27209055943483706,-0.14803818644551056,23.399999618530273,1545,0,10.350000381469727,22.200000762939453,-76.94999694824219,2779096485
2.2275702362060548,0.06414569244384766,9.956818168640137,0.34590945618192415,0.3368981446949619,-0.1887742244366481,23.299999237060547,1546,0,10.350000381469727,22.200000762939453,-76.94999694824219,2779096485
2.136010720062256,0.06351072463989257,9.997070903015137,0.38125890469445267,0.40373520516563993,-0.2248972080561824,23.299999237060547,1547,0,10.350000381469727,22.649999618530273,-76.3499984741211,2779096485
1.9144126388549805,0.020652996063232423,10.110017899322509,0.41949360859633944,0.468444792756226,-0.2583063905961595,23.299999237060547,1548,0,10.350000381469727,22.649999618530273,-76.3499984741211,2779096485
1.548568788909912,-0.08566577377319336,10.211833463287354,0.45912215108207033,0.5324499409538136,-0.27958486779628816,23.299999237060547,1549,0,10.350000381469727,22.649999618530273,-76.3499984741211,2779096485
1.1139356262207032,-0.17712988586425782,10.194791091918946,0.5006862524031582,0.589802333030729,-0.29206380141997956,23.299999237060547,1550,0,10.350000381469727,22.649999618530273,-76.3499984741211,2779096485
0.45665740509033204,-0.2198898178100586,10.029024232482909,0.5616099434773272,0.6574952602329469,-0.2867167399095784,23.399999618530273,1551,0,10.800000190734863,21.75,-75.9000015258789,2779096485
0.016551930236816406,-0.21286864776611328,9.848957382202148,0.599927578214989,0.6870494039371808,-0.2662183957980109,23.399999618530273,1552,0,10.800000190734863,21.75,-75.9000015258789,2779096485
-0.3767925491333008,-0.18554394760131834,9.624890085601807,0.6305956023532991,0.7029181687626948,-0.23894544928883468,23.399999618530273,1553,0,10.800000190734863,21.75,-75.9000015258789,2779096485
-0.7365938682556152,-0.15656885452270508,9.401821092224122,0.6570090735476832,0.7044048318256957,-0.20074302289913787,23.399999618530273,1554,0,10.199999809265137,21.899999618530273,-77.25,2779096485
-1.074898695373535,-0.15051989364624022,9.178683648681641,0.6753230263691522,0.6899557382464221,-0.15249867497721437,23.299999237060547,1555,0,10.199999809265137,21.899999618530273,-77.25,2779096485
-1.3726424072265624,-0.14143643341064452,8.978692903137206,0.6830362465707034,0.6642006337584947,-0.09666089583874816,23.299999237060547,1556,0,10.199999809265137,21.899999618530273,-77.25,2779096485
-1.5803100761413573,-0.09668094177246093,8.765343571472167,0.6798749345625474,0.6316932774522536,-0.035779921868170625,23.299999237060547,1557,0,10.199999809265137,21.899999618530273,-77.25,2779096485
-1.6962973289489744,-0.028185617065429686,8.565989812469482,0.6674915817897221,0.5883357968075281,0.026801014393549195,23.299999237060547,1558,0,10.949999809265137,23.100000381469727,-76.80000305175781,2779096485
-1.7332416137695312,0.06669423675537109,8.401627919769286,0.6449921517646264,0.5423388905140775,0.08607621542219056,23.299999237060547,1559,0,10.949999809265137,23.100000381469727,-76.80000305175781,2779096485
-1.702797103881836,0.16609968948364257,8.277265821075439,0.6138599519673109,0.4934606503359468,0.14511990120095963,23.299999237060547,1560,0,10.949999809265137,23.100000381469727,-76.80000305175781,2779096485
-1.625963158416748,0.26148665771484375,8.206721926116943,0.5762829622974184,0.4400603693158409,0.20058005741525314,23.299999237060547,1561,0,10.949999809265137,23.100000381469727,-76.80000305175781,2779096485
-1.4824328079223632,0.35614224472045897,8.172908965301513,0.5383558401835166,0.3882017323190628,0.2473436744654631,23.299999237060547,1562,0,11.25,22.649999618530273,-76.80000305175781,2779096485
-1.2948304580688477,0.44470042114257813,8.156686425781249,0.4967623841695149,0.33744814737740797,0.2872347180801364,23.299999237060547,1563,0,11.25,22.649999618530273,-76.80000305175781,2779096485
-1.054814646911621,0.5318205833435058,8.135330385589599,0.4472157238518816,0.29146670739188174,0.3194403049474318,23.299999237060547,1564,0,11.25,22.649999618530273,-76.80000305175781,2779096485
-0.7725214195251464,0.6127825859069824,8.11727901916504,0.4004478790334702,0.2483541510130249,0.3424800770381857,23.299999237060547,1565,0,11.25,22.649999618530273,-76.80000305175781,2779096485
-0.45685748443603513,0.69004345703125,8.129400119018554,0.35104317851676786,0.21091620498268981,0.3588987713092163,23.299999237060547,1566,0,11.550000190734863,23.700000762939453,-76.05000305175781,2779096485
-0.12346364822387695,0.7582926452636719,8.155505501556396,0.3007602540313283,0.17858709404698273,0.3631699956414516,23.299999237060547,1567,0,11.550000190734863,23.700000762939453,-76.05000305175781,2779096485
0.1978506591796875,0.7936281455993652,8.209374697113036,0.25141811782610474,0.1523729271693077,0.3594479750433409,23.299999237060547,1568,0,11.550000190734863,23.700000762939453,-76.05000305175781,2779096485
0.5006500007629394,0.8178816352844238,8.292843747711181,0.20303734282037675,0.13247314848233016,0.3457420631927576,23.299999237060547,1569,0,11.550000190734863,23.700000762939453,-76.05000305175781,2779096485
0.7914817039489745,0.8324115005493163,8.404129584503174,0.1576727242285875,0.12208492945803757,0.32438498279359546,23.299999237060547,1570,0,11.399999618530273,22.950000762939453,-76.3499984741211,2779096485
1.058501235961914,0.8469379638671874,8.537433084106445,0.11771909632872742,0.11528731734876876,0.29086397412021436,23.200000762939453,1571,0,11.399999618530273,22.950000762939453,-76.3499984741211,2779096485
1.291850277709961,0.8493194763183594,8.680878460693359,0.0842970240891629,0.11755477263269608,0.2549352614429636,23.200000762939453,1572,0,11.399999618530273,22.950000762939453,-76.3499984741211,2779096485
1.4724415885925293,0.8570119514465332,8.820713698577881,0.056554981730901184,0.12228153066625885,0.209924650194543,23.299999237060547,1573,0,11.399999618530273,22.950000762939453,-76.3499984741211,2779096485
1.66887202835083,0.8821115539550781,9.008541249847411,0.02521555471268799,0.13908327405214585,0.13853596782028488,23.299999237060547,1574,0,10.949999809265137,24.149999618530273,-76.05000305175781,2779096485
1.7520261932373047,0.9045862365722656,9.122026202392577,0.010377087011012573,0.15365645096365615,0.08710872296971862,23.299999237060547,1575,0,10.949999809265137,24.149999618530273,-76.05000305175781,2779096485
1.779351902770996,0.9234129478454589,9.23524898071289,0.0030217756838002013,0.1714077976929068,0.03193046235487274,23.299999237060547,1576,0,10.949999809265137,24.149999618530273,-76.05000305175781,2779096485
1.7422150901794433,0.9301196807861328,9.347820566558838,-0.0008513060682043457,0.18974012632577103,-0.017467546969636687,23.299999237060547,1577,0,10.949999809265137,24.0,-76.19999694824219,2779096485
1.6388618835449218,0.9100741752624512,9.486635220336915,-0.0001944573635585022,0.2116379416068495,-0.07015344834804367,23.299999237060547,1578,0,10.949999809265137,24.0,-76.19999694824219,2779096485
1.4575911926269531,0.8618950538635254,9.615931712341308,0.003806988752105713,0.23380773221238327,-0.11850317089567475,23.299999237060547,1579,0,10.949999809265137,24.0,-76.19999694824219,2779096485
1.227674752807617,0.8083883338928223,9.715399895477294,0.015743696123680574,0.2534622071330394,-0.1553733309855069,23.299999237060547,1580,0,10.949999809265137,24.0,-76.19999694824219,2779096485
0.9916483413696289,0.7651573257446289,9.746995384979249,0.02993493579008194,0.2706925063985968,-0.1885321830426396,23.299999237060547,1581,0,11.25,23.850000381469727,-76.3499984741211,2779096485
0.7659056419372559,0.7538771049499512,9.757304929351806,0.047629330819812625,0.282103958511985,-0.2099118936530092,23.299999237060547,1582,0,11.25,23.850000381469727,-76.3499984741211,2779096485
0.5716563735961914,0.7730207206726074,9.74433416519165,0.06420447248800476,0.2877881029771437,-0.22945669960072954,23.299999237060547,1583,0,11.25,23.850000381469727,-76.3499984741211,2779096485
0.3932435424804687,0.8039637092590332,9.723550287628173,0.08445103469394379,0.29048786919785263,-0.24157906924642333,23.299999237060547,1584,0,11.25,23.850000381469727,-76.3499984741211,2779096485
0.226070108795166,0.8250914825439453,9.716064658355712,0.10241328380637116,0.2881280554879561,-0.24887189615698913,23.299999237060547,1585,0,12.149999618530273,23.700000762939453,-76.05000305175781,2779096485
0.037433978271484376,0.8375678802490234,9.720091329956054,0.11902467775465286,0.2841002973409027,-0.2528982561444798,23.299999237060547,1586,0,12.149999618530273,23.700000762939453,-76.05000305175781,2779096485
-0.19899404983520508,0.8206281280517578,9.849991424560546,0.14103057742782943,0.27916314292476685,-0.24517048842557404,23.299999237060547,1587,0,12.149999618530273,23.700000762939453,-76.05000305175781,2779096485
-0.4199466957092285,0.8251523063659668,9.97112758026123,0.16923239457142547,0.27332404909054947,-0.2280443587053392,23.299999237060547,1588,0,12.149999618530273,23.700000762939453,-76.05000305175781,2779096485
-0.5924487373352051,0.8402861106872558,10.006950269317626,0.1999869514708603,0.2680156433631052,-0.2066712327607196,23.399999618530273,1589,0,12.300000190734863,23.399999618530273,-75.75,2779096485
-0.721225180053711,0.86649037399292,9.953950775909423,0.23140976872013352,0.26328019676654574,-0.17597832138219377,23.399999618530273,1590,0,12.300000190734863,23.399999618530273,-75.75,2779096485
-0.7881045799255371,0.9116672584533692,9.872559941101073,0.2571732222180209,0.2573758488281671,-0.14707168534514647,23.399999618530273,1591,0,12.300000190734863,23.399999618530273,-75.75,2779096485
-0.8142561317443847,0.971049552154541,9.745272766113281,0.2784918865187227,0.25034332593865954,-0.11416119968956771,23.399999618530273,1592,0,12.300000190734863,23.399999618530273,-75.75,2779096485
-0.7873495346069336,1.042288191986084,9.64258877105713,0.2952571978611478,0.24319280503996415,-0.0808735704788092,23.399999618530273,1593,0,12.449999809265137,24.0,-75.75,2779096485
-0.7398027641296386,1.1094554489135742,9.542412908172608,0.30372536430542374,0.2384283100140143,-0.050915664924483184,23.399999618530273,1594,0,12.449999809265137,24.0,-75.75,2779096485
-0.6697774230957031,1.1697723808288574,9.47052834701538,0.3114416071947914,0.23390450482782899,-0.02331510299815964,23.399999618530273,1595,0,12.449999809265137,24.0,-75.75,2779096485
-0.5776055938720703,1.2605571502685546,9.459201470947265,0.3145507212459406,0.2347418892215306,0.005553356624923706,23.299999237060547,1596,0,12.449999809265137,24.0,-75.75,2779096485
-0.44960457077026367,1.395163670349121,9.526904441070556,0.31786026479935164,0.23353947865552582,0.03298134571379608,23.299999237060547,1597,0,11.550000190734863,24.0,-76.6500015258789,2779096485
-0.33618335800170895,1.470639566040039,9.563205795288086,0.32167648140457106,0.23944905970541047,0.052595680139197847,23.299999237060547,1598,0,11.550000190734863,24.0,-76.6500015258789,2779096485
-0.2394588638305664,1.5308392990112305,9.54472428817749,0.3213820822638915,0.24831580815149398,0.07230447022991288,23.299999237060547,1599,0,11.550000190734863,24.0,-76.6500015258789,2779096485
-0.1470480758666992,1.5981386337280272,9.49815783920288,0.3180191156993805,0.2631240955803235,0.08412560972677796,23.299999237060547,1600,0,11.550000190734863,24.0,-76.6500015258789,2779096485
-0.08818160705566407,1.6491315391540526,9.458411845397949,0.30984923661094893,0.2802571362035396,0.09559310806492172,23.299999237060547,1601,0,12.449999809265137,23.399999618530273,-76.3499984741211,2779096485
-0.042095318603515626,1.6862539962768555,9.431510033416748,0.3001127729957524,0.2959442135228342,0.10598458280362458,23.299999237060547,1602,0,12.449999809265137,23.399999618530273,-76.3499984741211,2779096485
0.012728216552734374,1.713117041015625,9.370174835205077,0.29054429492306094,0.3138794781557018,0.11700139439359146,23.299999237060547,1603,0,12.449999809265137,23.399999618530273,-76.3499984741211,2779096485
0.035287723541259766,1.734568746948242,9.287174019622803,0.2786092187376425,0.32674030241918334,0.12749861660055192,23.299999237060547,1604,0,12.449999809265137,23.399999618530273,-76.3499984741211,2779096485
0.0502131118774414,1.7572357330322266,9.201899880981445,0.2656873614802985,0.33555607796235304,0.13738439034123764,23.399999618530273,1605,0,12.75,24.600000381469727,-75.75,2779096485
0.05389185028076172,1.789043489074707,9.151956083679199,0.2462839360959761,0.34411874667726106,0.14448430452166658,23.399999618530273,1606,0,12.75,24.600000381469727,-75.75,2779096485
0.05788188552856445,1.802632024383545,9.116906645965576,0.2263722663948131,0.34712353139342333,0.15214876224399354,23.399999618530273,1607,0,12.75,24.600000381469727,-75.75,2779096485
0.04971455841064453,1.7940099952697752,9.131761714935303,0.20349328931167038,0.35028893135382444,0.15792153670962097,23.399999618530273,1608,0,12.75,24.600000381469727,-75.75,2779096485
0.04640240783691406,1.7880629806518553,9.15202857131958,0.18349077252844634,0.35471910645462873,0.16440421670634675,23.399999618530273,1609,0,12.75,23.700000762939453,-76.3499984741211,2779096485
0.04038182144165039,1.7945871673583984,9.180638235473632,0.1615804137587198,0.35551283498046127,0.16538304158457046,23.399999618530273,1610,0,12.75,23.700000762939453,-76.3499984741211,2779096485
0.03805593643188476,1.8075648475646973,9.216562310028076,0.14367394455494079,0.352884627897751,0.16853113099800507,23.399999618530273,1611,0,12.75,23.700000762939453,-76.3499984741211,2779096485
0.03613974304199219,1.8375525245666504,9.257844039916991,0.1299711286291034,0.3507232130297992,0.17021568690234712,23.299999237060547,1612,0,12.75,23.700000762939453,-76.3499984741211,2779096485
0.025771954345703126,1.878151547241211,9.296625151824951,0.11522860130503876,0.34792188716161804,0.16955239334790756,23.299999237060547,1613,0,12.600000381469727,23.399999618530273,-75.30000305175781,2779096485
0.017045848083496094,1.913582489013672,9.315347412109375,0.10231579213743607,0.3407139085627991,0.17052660429957445,23.299999237060547,1614,0,12.600000381469727,23.399999618530273,-75.30000305175781,2779096485
0.005404908752441406,1.9535323753356932,9.30269938430786,0.09270743988559738,0.33463730736629793,0.16903966826256364,23.200000762939453,1615,0,12.600000381469727,23.399999618530273,-75.30000305175781,2779096485
-0.010108343505859374,1.9921457077026365,9.267674993896485,0.08060001057351623,0.3227368189852992,0.1655913207540915,23.200000762939453,1616,0,13.050000190734863,23.100000381469727,-75.75,2779096485
-0.02390929489135742,2.021238037109375,9.209733966827391,0.06938651122259323,0.3103409027501178,0.1629584265078949,23.299999237060547,1617,0,13.050000190734863,23.100000381469727,-75.75,2779096485
-0.04742889862060547,2.045962004852295,9.14703578414917,0.05504748609041626,0.29390855977859437,0.1597172263254883,23.299999237060547,1618,0,13.050000190734863,23.100000381469727,-75.75,2779096485
-0.07812646102905273,2.0487005722045897,9.103302409362792,0.04200861619348099,0.2753018722921156,0.15693044131675904,23.299999237060547,1619,0,13.050000190734863,23.100000381469727,-75.75,2779096485
-0.1347750473022461,2.0457737014770507,9.08984793319702,0.025670162965543062,0.25247917446032225,0.15353657542591279,23.399999618530273,1620,0,12.300000190734863,24.299999237060547,-76.05000305175781,2779096485
-0.21980017089843748,2.042219078063965,9.065731343841552,0.007947784770850678,0.2304935414429019,0.15068929005553544,23.399999618530273,1621,0,12.300000190734863,24.299999237060547,-76.05000305175781,2779096485
-0.3176723175048828,2.049109516143799,9.02376828994751,-0.011184677290223695,0.20588717150957764,0.14993674731567794,23.399999618530273,1622,0,12.300000190734863,24.299999237060547,-76.05000305175781,2779096485
-0.4039941062927246,2.055677367401123,8.968194831085205,-0.03205919290317978,0.17976847229842316,0.15091592506274368,23.399999618530273,1623,0,12.300000190734863,24.299999237060547,-76.05000305175781,2779096485
-0.48976769561767575,2.049143423461914,8.919790769958496,-0.05764457413600281,0.1524135403756523,0.1548132748700148,23.399999618530273,1624,0,13.649999618530273,24.75,-76.19999694824219,2779096485
-0.5679570365905762,2.031299800109863,8.89783337020874,-0.08295985757292618,0.12209999629180115,0.15890116053616624,23.399999618530273,1625,0,13.649999618530273,24.75,-76.19999694824219,2779096485
-0.632902448272705,1.9810196586608886,8.89175083847046,-0.11166786839933762,0.08791733856594239,0.16201842386019502,23.399999618530273,1626,0,13.649999618530273,24.75,-76.19999694824219,2779096485
-0.6799199356079101,1.9306242622375487,8.917572775268555,-0.14163845060036528,0.054701135335128936,0.17029441660153152,23.299999237060547,1627,0,13.649999618530273,24.75,-76.19999694824219,2779096485
-0.7100539710998535,1.864080271911621,8.974176538085937,-0.16894198351445083,0.018355704529171752,0.1817450371563829,23.200000762939453,1628,0,13.199999809265137,23.850000381469727,-75.30000305175781,2779096485
-0.7237524528503417,1.7987315238952637,9.053352032470702,-0.19726726480533446,-0.018030465983280945,0.19383559534307435,23.200000762939453,1629,0,13.199999809265137,23.850000381469727,-75.30000305175781,2779096485
-0.7142700302124023,1.7425173027038574,9.16214977493286,-0.22333041047653168,-0.053531388439669494,0.20528088957578217,23.299999237060547,1630,0,13.199999809265137,23.850000381469727,-75.30000305175781,2779096485
-0.6997434547424316,1.677050421142578,9.30368265914917,-0.2446840953453273,-0.0875960747879512,0.21625206790078416,23.399999618530273,1631,0,13.199999809265137,23.850000381469727,-75.30000305175781,2779096485
-0.6695891571044922,1.620514697265625,9.463658507537842,-0.25979043044550476,-0.11758194353353088,0.22609824043633256,23.399999618530273,1632,0,12.600000381469727,24.600000381469727,-75.5999984741211,2779096485
-0.6193459884643554,1.5398020462036133,9.617348118591309,-0.26940749789195084,-0.14776749609627243,0.23501960365809554,23.399999618530273,1633,0,12.600000381469727,24.600000381469727,-75.5999984741211,2779096485
-0.5508277099609374,1.4480074218749999,9.768310751342772,-0.27285711040193206,-0.16917299276371947,0.2428922007339873,23.299999237060547,1634,0,12.600000381469727,24.600000381469727,-75.5999984741211,2779096485
-0.4645973625183105,1.3556733085632324,9.91621802444458,-0.2706225451572412,-0.18523289931725753,0.2510003610645804,23.299999237060547,1635,0,12.600000381469727,24.600000381469727,-75.5999984741211,2779096485
-0.3637147918701172,1.2660208267211914,10.074798850250243,-0.26402986329244565,-0.19527295663673402,0.2575339473851932,23.399999618530273,1636,0,12.600000381469727,24.0,-75.30000305175781,2779096485
-0.23745556564331055,1.1906958877563476,10.23340199432373,-0.25319091091465745,-0.1944556724512216,0.26383356168984495,23.399999618530273,1637,0,12.600000381469727,24.0,-75.30000305175781,2779096485
-0.11546458663940429,1.127741736602783,10.40475387878418,-0.23960287057311097,-0.18541859488088988,0.27009279581474593,23.399999618530273,1638,0,12.600000381469727,24.0,-75.30000305175781,2779096485
0.004253592681884765,1.0875567794799805,10.576457397460937,-0.21957842931636354,-0.16780119849564698,0.2717722384498302,23.399999618530273,1639,0,12.600000381469727,24.0,-75.30000305175781,2779096485
0.10830778732299805,1.0590459213256835,10.745420068359374,-0.19338203903884263,-0.1439461262743791,0.27947439321712814,23.399999618530273,1640,0,12.300000190734863,25.049999237060547,-76.6500015258789,2779096485
0.1986356864929199,1.0364654792785644,10.890032611846923,-0.16337780779767302,-0.11342177967589141,0.2828827467042049,23.399999618530273,1641,0,12.300000190734863,25.049999237060547,-76.6500015258789,2779096485
0.26982228775024414,1.0079060218811036,10.988685262298583,-0.13047495875646759,-0.08213720711785416,0.28673307840275375,23.399999618530273,1642,0,12.300000190734863,25.049999237060547,-76.6500015258789,2779096485
0.31897873992919923,0.9769600051879882,11.062698694610596,-0.09188043516217301,-0.04301280768091339,0.29297633356122404,23.299999237060547,1643,0,12.300000190734863,25.049999237060547,-76.6500015258789,2779096485
0.35781409606933595,0.950283095550537,11.079852208709717,-0.05280415904579926,-0.0050926097857981875,0.2967813981794554,23.200000762939453,1644,0,12.75,24.0,-75.30000305175781,2779096485
0.3769986099243164,0.9218616600036621,11.06828080368042,-0.01215667116029831,0.03446116445284256,0.30157175915731493,23.200000762939453,1645,0,12.75,24.0,-75.30000305175781,2779096485
0.36857707138061524,0.9101028861999512,11.010705205535888,0.029099548767184142,0.07524491963248367,0.30318660682060317,23.200000762939453,1646,0,12.75,24.0,-75.30000305175781,2779096485
0.34245153884887697,0.9140888092041015,10.939363759613038,0.06896561193100419,0.11344548180943023,0.3071695306510132,23.200000762939453,1647,0,12.75,24.0,-75.30000305175781,2779096485
0.2919602149963379,0.9313589241027832,10.850158054351807,0.10805696153904419,0.14812692963032487,0.3088133268751517,23.200000762939453,1648,0,13.050000190734863,24.149999618530273,-76.19999694824219,2779096485
0.20543472061157225,0.9603876258850097,10.769609220123291,0.14568626900819184,0.18007071444845918,0.31264640794785814,23.299999237060547,1649,0,13.050000190734863,24.149999618530273,-76.19999694824219,2779096485
0.11551034469604492,1.0001137313842774,10.659028820037841,0.18117330307959106,0.20470297030740112,0.3178728216038051,23.399999618530273,1650,0,13.050000190734863,24.149999618530273,-76.19999694824219,2779096485
0.037724900817871096,1.054648250579834,10.52287314300537,0.21279585740924759,0.22558769914306748,0.32266957416823683,23.399999618530273,1651,0,13.050000190734863,24.149999618530273,-76.19999694824219,2779096485
-0.0324015266418457,1.1300582008361817,10.379875215911865,0.2393597239672577,0.23964139319801422,0.3296794735044397,23.399999618530273,1652,0,12.899999618530273,25.049999237060547,-75.5999984741211,2779096485
-0.07920794372558594,1.203892115020752,10.21512748260498,0.2625830810664946,0.2484920295196135,0.33481374178730317,23.200000762939453,1653,0,12.899999618530273,25.049999237060547,-75.5999984741211,2779096485
-0.12307713470458984,1.282052670288086,10.046374685668946,0.2777562282200603,0.25105070812464236,0.33964096091439605,23.200000762939453,1654,0,12.899999618530273,25.049999237060547,-75.5999984741211,2779096485
-0.15147860717773437,1.3459271789550782,9.877878754425048,0.28755281269645216,0.24687439219510254,0.3411618589129747,23.200000762939453,1655,0,12.899999618530273,25.049999237060547,-75.5999984741211,2779096485
-0.18358465042114258,1.4031779098510742,9.699426483154296,0.2922996309907881,0.23992255642816712,0.3428916619239262,23.200000762939453,1656,0,12.600000381469727,24.75,-75.30000305175781,2779096485
-0.21081895599365233,1.4564252220153808,9.520168772888184,0.29172450138362976,0.22735289556466293,0.3417607106273799,23.200000762939453,1657,0,12.600000381469727,24.75,-75.30000305175781,2779096485
-0.23527267456054687,1.4982879371643065,9.335248876953125,0.2861883088318137,0.21009535881924393,0.33849037546284805,23.200000762939453,1658,0,12.600000381469727,24.75,-75.30000305175781,2779096485
-0.24516553649902342,1.55194766998291,9.159360739135742,0.2741385902201579,0.18966364699769225,0.3373389045102437,23.299999237060547,1659,0,12.600000381469727,24.450000762939453,-75.44999694824219,2779096485
-0.23803460693359374,1.6038189880371094,9.006809397125243,0.2573634784449887,0.16597514218565873,0.32806367376106826,23.299999237060547,1660,0,12.600000381469727,24.450000762939453,-75.44999694824219,2779096485
-0.21182739028930664,1.645669366455078,8.876137135314941,0.23597223634717834,0.13903825331422745,0.3170955314396881,23.299999237060547,1661,0,12.600000381469727,24.450000762939453,-75.44999694824219,2779096485
-0.17285397491455076,1.6918448905944823,8.789905666351318,0.21024462899731705,0.10976917437111663,0.3024402825618483,23.399999618530273,1662,0,12.600000381469727,24.450000762939453,-75.44999694824219,2779096485
-0.12826237487792969,1.722344841003418,8.73467890701294,0.18459163676278428,0.08000986739581574,0.2859740774972972,23.399999618530273,1663,0,12.899999618530273,24.899999618530273,-75.9000015258789,2779096485
-0.08604122161865234,1.7435194190979004,8.70602632598877,0.15701114841303926,0.05181060022894592,0.2642569576949388,23.399999618530273,1664,0,12.899999618530273,24.899999618530273,-75.9000015258789,2779096485
-0.036909181213378904,1.7491210426330566,8.694399704742432,0.128410929031008,0.023963642640261535,0.24616686353526077,23.399999618530273,1665,0,12.899999618530273,24.899999618530273,-75.9000015258789,2779096485
0.006350537872314453,1.7505350563049316,8.722842860412598,0.10035100510931626,-0.003971225895402222,0.22499806862387328,23.399999618530273,1666,0,12.899999618530273,24.899999618530273,-75.9000015258789,2779096485
0.04098792877197265,1.7553981956481932,8.783400395965575,0.07617243205475693,-0.03127524483638336,0.20263210957379243,23.399999618530273,1667,0,12.899999618530273,25.049999237060547,-75.5999984741211,2779096485
0.06962103271484375,1.7515280136108398,8.886202935791015,0.05731611316521515,-0.0577750690285199,0.1792488229942926,23.399999618530273,1668,0,12.899999618530273,25.049999237060547,-75.5999984741211,2779096485
0.08923867797851562,1.7352858474731445,8.997094931793212,0.04054697352874939,-0.08191999970083999,0.15829475210221985,23.399999618530273,1669,0,12.899999618530273,25.049999237060547,-75.5999984741211,2779096485
0.1193107307434082,1.7231497566223144,9.116721146392821,0.028919658894688262,-0.10345006572741944,0.13830962576079453,23.399999618530273,1670,0,12.899999618530273,25.049999237060547,-75.5999984741211,2779096485
0.16310268630981445,1.690348557281494,9.225610554504394,0.02680179336816269,-0.12449018335372132,0.11249434049054764,23.399999618530273,1671,0,12.449999809265137,25.049999237060547,-74.8499984741211,2779096485
0.2573137771606445,1.4636692008972167,9.43794259185791,0.05555897280586182,-0.15984563063656404,-0.016329744691233217,23.399999618530273,1676,0,13.199999809265137,24.75,-75.5999984741211,2779096485
0.23694598388671875,1.4638778411865234,9.481586693572998,0.06446441698231827,-0.1594997326186589,-0.0392703939268956,23.399999618530273,1677,0,13.199999809265137,24.75,-75.5999984741211,2779096485
0.17476149520874024,1.46803330078125,9.55965876083374,0.0757657140958751,-0.15506109532354903,-0.058977173331001435,23.399999618530273,1678,0,13.199999809265137,24.75,-75.5999984741211,2779096485
0.0846124412536621,1.4537343940734864,9.634145661926269,0.08597043466441956,-0.1521405131025737,-0.07459717228080064,23.299999237060547,1679,0,13.199999809265137,25.049999237060547,-75.75,2779096485
-0.008021641540527343,1.4474023986816407,9.67502024230957,0.0996533834086615,-0.1439354802879947,-0.08200773088444702,23.299999237060547,1680,0,13.199999809265137,25.049999237060547,-75.75,2779096485
-0.08813199844360352,1.4476620681762695,9.685621083068847,0.11030070137362732,-0.137232243949207,-0.08949169286513428,23.399999618530273,1681,0,13.199999809265137,25.049999237060547,-75.75,2779096485
-0.15730681533813476,1.4442042320251465,9.662566648864745,0.11997976720982437,-0.13038933812800996,-0.08982012720431122,23.399999618530273,1682,0,13.199999809265137,25.049999237060547,-75.75,2779096485
-0.21698257369995116,1.4376431098937987,9.630111962127685,0.13069264554247467,-0.12213640170365235,-0.09115397808501358,23.399999618530273,1683,0,12.300000190734863,25.049999237060547,-76.5,2779096485
-0.27171302261352537,1.428049843597412,9.58927689666748,0.14036182439319275,-0.11573499472493454,-0.08849369322719376,23.399999618530273,1684,0,12.300000190734863,25.049999237060547,-76.5,2779096485
-0.3259862648010254,1.4205615226745605,9.547413396453857,0.1481936085256595,-0.1078909400778296,-0.08474554701896897,23.399999618530273,1685,0,12.300000190734863,25.049999237060547,-76.5,2779096485
-0.3770133392333984,1.4182452453613281,9.504830141448974,0.15446940085452424,-0.10559817810581772,-0.0795237672632869,23.399999618530273,1686,0,12.300000190734863,25.049999237060547,-76.5,2779096485
-0.40786974639892576,1.4280403480529784,9.480871088409424,0.15846195201220872,-0.1002581673143541,-0.07330919434955963,23.399999618530273,1687,0,12.449999809265137,24.149999618530273,-75.9000015258789,2779096485
-0.40801173095703125,1.444343824005127,9.466391654205323,0.16573748169161331,-0.09721806242447739,-0.06574330021849914,23.200000762939453,1688,0,12.449999809265137,24.149999618530273,-75.9000015258789,2779096485
-0.38492230529785154,1.4733387680053711,9.481781539154053,0.16973243635216506,-0.09139398216080216,-0.05636091052569809,23.200000762939453,1689,0,12.449999809265137,24.149999618530273,-75.9000015258789,2779096485
-0.35672932357788084,1.5100027847290038,9.518534529876709,0.1748022960845076,-0.0875528383679509,-0.05249679696860275,23.200000762939453,1690,0,12.449999809265137,24.149999618530273,-75.9000015258789,2779096485
-0.34033141555786134,1.5362279457092285,9.569153034210204,0.17884453516988877,-0.08007146631140595,-0.04882032974062485,23.399999618530273,1691,0,12.449999809265137,25.350000381469727,-75.30000305175781,2779096485
-0.347347314453125,1.5527696327209473,9.616544287109374,0.1856292775532782,-0.07094065878715301,-0.04235625192398544,23.399999618530273,1692,0,12.449999809265137,25.350000381469727,-75.30000305175781,2779096485
-0.38131818542480467,1.5507708953857422,9.635545955657959,0.19336745157407195,-0.06085400280682312,-0.03861565577739914,23.399999618530273,1693,0,12.449999809265137,25.350000381469727,-75.30000305175781,2779096485
-0.4326515846252441,1.549445930480957,9.62104895095825,0.20398614721541886,-0.051361431482579954,-0.03117060923787323,23.399999618530273,1694,0,12.449999809265137,25.350000381469727,-75.30000305175781,2779096485
-0.4888957130432129,1.548151022338867,9.578960511016845,0.2090174909807608,-0.04133905755262009,-0.02407018239893799,23.399999618530273,1695,0,12.0,25.350000381469727,-75.75,2779096485
-0.5349276451110839,1.5501183944702148,9.533524031829833,0.21410733107904434,-0.03444302832594376,-0.015505656129182433,23.399999618530273,1696,0,12.0,25.350000381469727,-75.75,2779096485
-0.570486328125,1.5599674423217773,9.492051269531249,0.21686305031387132,-0.02973521868340668,-0.0062979897763980105,23.399999618530273,1697,0,12.0,25.350000381469727,-75.75,2779096485
-0.5981481948852538,1.5610118026733397,9.466605191802978,0.21763032033445573,-0.026515237236839448,0.004281404265432129,23.299999237060547,1698,0,12.0,25.350000381469727,-75.75,2779096485
-0.6203054122924805,1.557401252746582,9.45017812423706,0.2143934677624988,-0.024843737479651795,0.011439894673634796,23.299999237060547,1699,0,12.449999809265137,25.200000762939453,-75.5999984741211,2779096485
-0.6416087409973145,1.5573715698242188,9.452935906982422,0.21299110706322494,-0.024132986394913177,0.02149284835060135,23.299999237060547,1700,0,12.449999809265137,25.200000762939453,-75.5999984741211,2779096485
-0.6417215286254883,1.5464942367553711,9.468737464904784,0.21019870944253694,-0.025669310754000092,0.03119632871592392,23.299999237060547,1701,0,12.449999809265137,25.200000762939453,-75.5999984741211,2779096485
-0.6417761093139648,1.5481424613952637,9.501889214324951,0.20815692376992936,-0.0305229218073143,0.03999930777014374,23.299999237060547,1702,0,12.449999809265137,25.200000762939453,-75.5999984741211,2779096485
-0.6226308860778809,1.5514219009399413,9.55279464111328,0.2057878156278923,-0.03417565361223999,0.04762438399812179,23.399999618530273,1703,0,11.699999809265137,25.350000381469727,-75.75,2779096485
-0.5961306907653808,1.5489364608764649,9.605272290802002,0.20598390417760726,-0.03733113995555145,0.053249985525020145,23.399999618530273,1704,0,11.699999809265137,25.350000381469727,-75.75,2779096485
-0.5540539520263672,1.541568292236328,9.654326871490479,0.20869803815229843,-0.040713161437530974,0.056149888300273135,23.399999618530273,1705,0,11.699999809265137,25.350000381469727,-75.75,2779096485
-0.5103505592346191,1.5365413734436035,9.680341036987304,0.21067693993409867,-0.04137467067405243,0.0583156574365773,23.399999618530273,1706,0,12.149999618530273,25.049999237060547,-75.75,2779096485
-0.4637219779968262,1.5322521537780762,9.693691772460937,0.21432899263295105,-0.04330216678926468,0.056949708807057346,23.299999237060547,1707,0,12.149999618530273,25.049999237060547,-75.75,2779096485
-0.4061342674255371,1.5466116973876953,9.70462682647705,0.217645060930988,-0.04286330447624649,0.05539737219202637,23.299999237060547,1708,0,12.149999618530273,25.049999237060547,-75.75,2779096485
-0.36025089950561523,1.5538240119934081,9.706336959075928,0.21834661079422363,-0.04335286671816864,0.05041665511865891,23.299999237060547,1709,0,12.149999618530273,25.049999237060547,-75.75,2779096485
-0.31394038162231447,1.5589871955871581,9.700658548736572,0.21828279479704116,-0.04210307185879425,0.04434823648455078,23.399999618530273,1710,0,11.699999809265137,25.200000762939453,-75.44999694824219,2779096485
-0.27595554962158203,1.5443593841552734,9.691113844299316,0.21916049279146682,-0.04270947363483795,0.036107677101274264,23.399999618530273,1711,0,11.699999809265137,25.200000762939453,-75.44999694824219,2779096485
-0.22550949783325194,1.5314634254455566,9.68781761932373,0.21663336598723587,-0.04313292290315323,0.028693216966657716,23.399999618530273,1712,0,11.699999809265137,25.200000762939453,-75.44999694824219,2779096485
-0.17048965911865233,1.524225241088867,9.683865528869628,0.21338529484926408,-0.04192402753993866,0.017018071959747468,23.399999618530273,1713,0,11.699999809265137,25.200000762939453,-75.44999694824219,2779096485
-0.10256376800537109,1.5070646240234375,9.696274710083008,0.21164479258870667,-0.03859805894061737,0.0051518850933532714,23.299999237060547,1714,0,12.149999618530273,25.200000762939453,-74.8499984741211,2779096485
-0.04817134552001953,1.4825331840515137,9.701916484069823,0.2096055568928253,-0.03520521836678375,-0.009425379770402222,23.299999237060547,1715,0,12.149999618530273,25.200000762939453,-74.8499984741211,2779096485
0.004247835540771484,1.4697605178833006,9.712940399932862,0.20610267450350586,-0.032487322677078705,-0.02508802924476593,23.399999618530273,1716,0,12.149999618530273,25.200000762939453,-74.8499984741211,2779096485
0.037024286651611324,1.4621302124023436,9.75066399230957,0.20445222703459062,-0.029216468196137848,-0.04356419520711685,23.399999618530273,1717,0,12.149999618530273,25.200000762939453,-74.8499984741211,2779096485
0.056787542724609376,1.4777793182373047,9.80077624206543,0.20051073533255478,-0.022174045005345918,-0.05914907372028198,23.399999618530273,1718,0,12.75,25.649999618530273,-75.30000305175781,2779096485
0.056332167816162106,1.4872752365112305,9.860710436248779,0.20092142140143357,-0.01502176642034317,-0.07067578744485672,23.399999618530273,1719,0,12.75,25.649999618530273,-75.30000305175781,2779096485
0.04631474227905273,1.4975381256103515,9.911998264312745,0.1957418793803499,-0.007307587480806122,-0.08834257215217575,23.299999237060547,1720,0,12.75,25.649999618530273,-75.30000305175781,2779096485
0.011372970581054687,1.4921424507141112,9.943699251556396,0.1954629132580812,0.00048184573271667483,-0.10086424951106919,23.299999237060547,1721,0,12.75,25.649999618530273,-75.30000305175781,2779096485
-0.041076790618896485,1.4711586433410644,9.963345944213867,0.19142620688982667,0.009546307256768952,-0.11066096714551468,23.299999237060547,1722,0,12.149999618530273,25.049999237060547,-75.5999984741211,2779096485
-0.10051119766235352,1.4327818397521972,9.97945820083618,0.18913508276187393,0.018613212231104584,-0.12037322262656876,23.299999237060547,1723,0,12.149999618530273,25.049999237060547,-75.5999984741211,2779096485
-0.15807101974487303,1.4000886054992676,9.989746548461914,0.18650600349391266,0.023393506460112762,-0.12771505835875793,23.299999237060547,1724,0,12.149999618530273,25.049999237060547,-75.5999984741211,2779096485
-0.2053740837097168,1.3740558975219725,10.010330159759521,0.18178459841410416,0.026938593294517213,-0.13232892499448806,23.299999237060547,1725,0,12.149999618530273,25.049999237060547,-75.5999984741211,2779096485
-0.25185989532470704,1.3580325775146485,10.05043477859497,0.17777074862574813,0.027081518491336824,-0.13620893762318192,23.299999237060547,1726,0,11.850000381469727,24.899999618530273,-74.0999984741211,2779096485
-0.29722126998901366,1.3303092140197754,10.098048915100097,0.17155644202812806,0.025274923230880583,-0.14234024014809737,23.299999237060547,1727,0,11.850000381469727,24.899999618530273,-74.0999984741211,2779096485
-0.34839810485839845,1.3029823081970215,10.15791604232788,0.16807677574545182,0.021821682163939055,-0.14720546924158723,23.299999237060547,1728,0,11.850000381469727,24.899999618530273,-74.0999984741211,2779096485
-0.4022011306762695,1.2760523460388182,10.228762785339356,0.16492586338128112,0.0164607589001593,-0.14962256088823503,23.200000762939453,1729,0,11.850000381469727,24.899999618530273,-74.0999984741211,2779096485
-0.4413969436645508,1.2536914978027343,10.302238523101806,0.16511703839881867,0.010794883719953003,-0.1513236883123462,23.200000762939453,1730,0,12.0,25.799999237060547,-75.0,2779096485
-0.4793721305847168,1.2391768852233886,10.37073702545166,0.16845754119968917,0.003040717416923218,-0.15637861436897874,23.200000762939453,1731,0,12.0,25.799999237060547,-75.0,2779096485
-0.506022908782959,1.2319034477233886,10.432089644622803,0.17415705876213472,-0.005944348617676697,-0.15872105095288194,23.200000762939453,1732,0,12.0,25.799999237060547,-75.0,2779096485
-0.5339212295532226,1.2279141227722168,10.496377321624756,0.1814269558558725,-0.014997884523432007,-0.15871452620825607,23.200000762939453,1733,0,12.0,25.799999237060547,-75.0,2779096485
-0.5583579010009766,1.221026114654541,10.55056566467285,0.18782623896363557,-0.024773729632977446,-0.15915516618128966,23.200000762939453,1734,0,11.25,25.200000762939453,-75.0,2779096485
-0.5856491050720215,1.2180588317871093,10.593460328674317,0.19851648042717576,-0.03442205593250351,-0.15879498030423447,23.299999237060547,1735,0,11.25,25.200000762939453,-75.0,2779096485
-0.6323957450866698,1.2238132438659668,10.618709392547608,0.2090717129401822,-0.046391440290429076,-0.15389590243352233,23.299999237060547,1736,0,11.25,25.200000762939453,-75.0,2779096485
-0.6919324348449707,1.2604937469482422,10.60145976409912,0.21732010201700974,-0.05906755435987488,-0.1495330120971965,23.299999237060547,1737,0,11.25,25.200000762939453,-75.0,2779096485
-0.7164755386352539,1.3258465324401856,10.593984153747558,0.2233665162827623,-0.06910622017769134,-0.13847221174422653,23.299999237060547,1738,0,13.199999809265137,25.649999618530273,-74.69999694824219,2779096485
-0.7063996070861817,1.394830541229248,10.570367650604247,0.23011672412495346,-0.0803566575726799,-0.1329328833202484,23.299999237060547,1739,0,13.199999809265137,25.649999618530273,-74.69999694824219,2779096485
-0.6943014236450195,1.429010015106201,10.578358637237548,0.2369573729171422,-0.09285533853571853,-0.1264840254691342,23.299999237060547,1740,0,13.199999809265137,25.649999618530273,-74.69999694824219,2779096485
-0.6685178428649902,1.433683094024658,10.584591191101074,0.2462400605173186,-0.10455338006994339,-0.12113301582244415,23.299999237060547,1741,0,13.199999809265137,25.649999618530273,-74.69999694824219,2779096485
-0.6312588592529297,1.4467341590881346,10.613160330963135,0.25691155332691346,-0.1131337920954921,-0.11860469725363358,23.299999237060547,1742,0,12.300000190734863,25.350000381469727,-76.05000305175781,2779096485
-0.5684231407165528,1.4663377853393553,10.626669163513183,0.267660357702422,-0.11787487793562103,-0.11826322674101028,23.299999237060547,1743,0,12.300000190734863,25.350000381469727,-76.05000305175781,2779096485
-0.482495043182373,1.522213082885742,10.617043560028076,0.2790139193520125,-0.12029054479109542,-0.11883747750501496,23.299999237060547,1744,0,12.300000190734863,25.350000381469727,-76.05000305175781,2779096485
-0.36943600692749023,1.6141142143249512,10.61437781677246,0.29365248352573764,-0.1201525198106479,-0.12006809094676987,23.200000762939453,1745,0,12.300000190734863,25.350000381469727,-76.05000305175781,2779096485
-0.24717227401733396,1.7316099502563476,10.579811268615723,0.30200642699164504,-0.11769806401416305,-0.12363875078536606,23.200000762939453,1746,0,12.149999618530273,25.950000762939453,-75.5999984741211,2779096485
-0.1229690574645996,1.8167140663146972,10.534788705444335,0.311333010144187,-0.11432850612599946,-0.12839179421870728,23.200000762939453,1747,0,12.149999618530273,25.950000762939453,-75.5999984741211,2779096485
0.012327796173095703,1.9438013114929198,10.505798658752441,0.3224012274007419,-0.10755451625543731,-0.13497332409651475,23.200000762939453,1748,0,12.149999618530273,25.950000762939453,-75.5999984741211,2779096485
0.10546977844238281,2.0698490936279295,10.483208496856689,0.327439588595508,-0.09860531634257157,-0.13819136143549957,23.200000762939453,1749,0,12.149999618530273,25.5,-75.44999694824219,2779096485
0.13933051605224608,2.1691272537231443,10.453267250823973,0.3343841605906201,-0.08395765747378632,-0.1467782116529393,23.200000762939453,1750,0,12.149999618530273,25.5,-75.44999694824219,2779096485
0.12876320877075195,2.221147322845459,10.390561479187012,0.33990130488287035,-0.06572852633245346,-0.15175256377134522,23.100000381469727,1751,0,12.149999618530273,25.5,-75.44999694824219,2779096485
0.06861472930908202,2.211556224822998,10.314144328308105,0.34218763532089386,-0.04173958366201004,-0.15736845141823425,23.0,1752,0,12.149999618530273,25.5,-75.44999694824219,2779096485
-0.015811875915527344,2.1765178901672364,10.203730025482177,0.339047215811346,-0.010656146343918762,-0.16253723426858796,23.0,1753,0,12.600000381469727,25.950000762939453,-75.0,2779096485
-0.09717669143676758,2.1394571914672853,10.068748468780518,0.3284921031405878,0.02370060222120209,-0.1647930115912155,23.100000381469727,1754,0,12.600000381469727,25.950000762939453,-75.0,2779096485
-0.15495046234130858,2.123583744049072,9.932219998168945,0.3122942515014343,0.06255042975164261,-0.1644153087722107,23.299999237060547,1755,0,12.600000381469727,25.950000762939453,-75.0,2779096485
-0.2140686004638672,2.1224761672973633,9.795323556518554,0.2843388899413232,0.10236589285509888,-0.16300923296324174,23.299999237060547,1756,0,12.600000381469727,25.950000762939453,-75.0,2779096485
-0.27639582138061525,2.132959323120117,9.68236556930542,0.25010500631224886,0.14019865251432495,-0.16193655828884856,23.299999237060547,1757,0,12.300000190734863,25.350000381469727,-74.55000305175781,2779096485
-0.34134153213500973,2.132818946075439,9.584800981140136,0.20749882337957978,0.17577301829517045,-0.1617323138083513,23.299999237060547,1758,0,12.300000190734863,25.350000381469727,-74.55000305175781,2779096485
-0.4499030075073242,2.097229309082031,9.520738542938233,0.1558237514175766,0.20778666448612015,-0.15713784830102906,23.299999237060547,1759,0,12.300000190734863,25.350000381469727,-74.55000305175781,2779096485
-0.55073798828125,2.053975160217285,9.48605640335083,0.102419455682155,0.23379880396489014,-0.1512486670649542,23.299999237060547,1760,0,12.300000190734863,25.350000381469727,-74.55000305175781,2779096485
-0.673604613494873,1.986742593383789,9.502214193725585,0.04457033746003433,0.2576445484645041,-0.14642297259757492,23.299999237060547,1761,0,12.149999618530273,25.950000762939453,-75.30000305175781,2779096485
-0.8062317237854003,1.9095121154785155,9.5679580909729,-0.014829639322722474,0.2736361649102591,-0.13658429686044357,23.299999237060547,1762,0,12.149999618530273,25.950000762939453,-75.30000305175781,2779096485
-0.9403579711914062,1.8245725639343262,9.666997890472413,-0.06967891299246902,0.2854957671109033,-0.12792402329225494,23.299999237060547,1763,0,12.149999618530273,25.950000762939453,-75.30000305175781,2779096485
-1.0709316513061522,1.7205952682495116,9.818126321411132,-0.12349713719537429,0.2934821876910028,-0.11590569669173278,23.299999237060547,1764,0,12.149999618530273,25.950000762939453,-75.30000305175781,2779096485
-1.186333544921875,1.6326593116760253,9.975250216674805,-0.17107750579888228,0.2956282627511812,-0.10035511969317215,23.299999237060547,1765,0,12.75,25.350000381469727,-74.55000305175781,2779096485
-1.2938812774658204,1.5309933959960937,10.129325817871093,-0.21574064776436538,0.2901826243337082,-0.08433398210693649,23.299999237060547,1766,0,12.75,25.350000381469727,-74.55000305175781,2779096485
-1.3819558166503907,1.420450978088379,10.284157473754883,-0.25183029526518375,0.281016243635439,-0.06579340759406464,23.399999618530273,1767,0,12.75,25.350000381469727,-74.55000305175781,2779096485
-1.4514430892944334,1.2978706024169921,10.431444246673584,-0.2829497917841869,0.26755231325774004,-0.04363448268570374,23.399999618530273,1768,0,12.75,25.350000381469727,-74.55000305175781,2779096485
-1.4931825119018554,1.181246736907959,10.574598775482178,-0.3094413868086116,0.2493419840335739,-0.018940581305852813,23.399999618530273,1769,0,12.600000381469727,25.649999618530273,-74.69999694824219,2779096485
-1.5051932540893553,1.0665111015319824,10.756112911224365,-0.3259889447860028,0.22795666746914825,0.0035554665046817016,23.399999618530273,1770,0,12.600000381469727,25.649999618530273,-74.69999694824219,2779096485
-1.478139176940918,0.9700281829833984,10.959542539215088,-0.3339978757350615,0.20464169097113952,0.023853707351218566,23.200000762939453,1771,0,12.600000381469727,25.649999618530273,-74.69999694824219,2779096485
-1.4338576774597167,0.8889273361206055,11.108101976776123,-0.335251572125406,0.18228517948496079,0.043222777957714995,23.200000762939453,1772,0,12.600000381469727,25.649999618530273,-74.69999694824219,2779096485
-1.3764510551452636,0.804832364654541,11.20692872467041,-0.32899507439850634,0.15867016460270295,0.06139307987097229,23.200000762939453,1773,0,12.149999618530273,26.25,-74.8499984741211,2779096485
-1.284496614074707,0.7144118278503417,11.287652777862549,-0.31767301128649233,0.13440176978309526,0.07592624278737915,23.200000762939453,1774,0,12.149999618530273,26.25,-74.8499984741211,2779096485
-1.1726547271728516,0.647178588104248,11.359225817871094,-0.3018144463678833,0.11153368502873612,0.08573035069379883,23.200000762939453,1775,0,12.149999618530273,26.25,-74.8499984741211,2779096485
-1.0426510414123535,0.6083933265686035,11.394561916351318,-0.2825814300026413,0.09022022055002701,0.0932512973238704,23.299999237060547,1776,0,12.149999618530273,26.25,-74.8499984741211,2779096485
-0.8396790687561035,0.6189311752319335,11.390865943908691,-0.24677152759870513,0.05971183960216461,0.09359848697489533,23.399999618530273,1777,0,12.899999618530273,25.5,-75.30000305175781,2779096485
-0.7089965637207031,0.6454554458618164,11.350997704315185,-0.21984200236763732,0.04364526183014175,0.08939621854071106,23.399999618530273,1778,0,12.899999618530273,25.5,-75.30000305175781,2779096485
-0.5971356483459472,0.6712144653320312,11.296971981811524,-0.19291382203291077,0.024842306030575714,0.08194298943879212,23.399999618530273,1779,0,12.899999618530273,25.5,-75.30000305175781,2779096485
-0.4993646629333496,0.6989052673339844,11.212389784240722,-0.16652411289318955,0.009948251499429626,0.07103671234910934,23.299999237060547,1780,0,13.649999618530273,25.350000381469727,-74.69999694824219,2779096485
-0.4160670181274414,0.7139477798461914,11.116918365478515,-0.13976728699972382,-0.006070522531354828,0.06185487200081848,23.299999237060547,1781,0,13.649999618530273,25.350000381469727,-74.69999694824219,2779096485
-0.33703100357055665,0.7230984191894531,10.996107263946532,-0.12140244782807587,-0.018817470027407225,0.049068436483974305,23.299999237060547,1782,0,13.649999618530273,25.350000381469727,-74.69999694824219,2779096485
-0.2583510345458984,0.7473771057128906,10.880384353637695,-0.10043940208319123,-0.029795312912991333,0.03617484202350449,23.200000762939453,1783,0,13.649999618530273,25.350000381469727,-74.69999694824219,2779096485
-0.19780650863647462,0.7640137855529785,10.75458311920166,-0.08189414706473572,-0.04246318449891998,0.02103378596085373,23.200000762939453,1784,0,12.0,26.399999618530273,-74.69999694824219,2779096485
-0.1688693603515625,0.7821693786621093,10.626137525177002,-0.07033601469741668,-0.053522307060414734,0.006001906186340484,23.200000762939453,1785,0,12.0,26.399999618530273,-74.69999694824219,2779096485
-0.16052602920532227,0.7927652847290039,10.490066859436034,-0.06234695758785614,-0.06261614325108872,-0.0096493183270253,23.299999237060547,1786,0,12.0,26.399999618530273,-74.69999694824219,2779096485
-0.16743071060180664,0.8020128608703613,10.348108881378174,-0.05680963319258454,-0.07430744032989929,-0.024477000226360016,23.299999237060547,1787,0,12.0,26.399999618530273,-74.69999694824219,2779096485
-0.17872622146606446,0.807915837097168,10.216785501861573,-0.05348238627594879,-0.08556606694518357,-0.03558836735018036,23.299999237060547,1788,0,12.449999809265137,25.049999237060547,-74.4000015258789,2779096485
-0.17451767654418945,0.812977074432373,10.092606958770752,-0.05477253468346329,-0.09791107019857528,-0.04830922252563202,23.299999237060547,1789,0,12.449999809265137,25.049999237060547,-74.4000015258789,2779096485
-0.15905694885253907,0.8199435890197754,9.993842791748046,-0.05892550800620895,-0.11154221380206848,-0.056849187792403104,23.200000762939453,1790,0,12.449999809265137,25.049999237060547,-74.4000015258789,2779096485
-0.23397189712524413,0.7533020637512207,9.819744564056396,-0.06587167789796418,-0.1229446910626448,-0.06783156470971191,23.200000762939453,1791,0,12.449999809265137,25.049999237060547,-74.4000015258789,2779096485
-0.3176382606506348,0.748236302947998,9.551132210540771,-0.0830197320917224,-0.13286621774071916,-0.07543219311905106,23.299999237060547,1792,0,12.449999809265137,25.5,-74.69999694824219,2779096485
-0.14390086364746094,0.8314588806152343,9.507454724884033,-0.10043912910918136,-0.14160819043268721,-0.08032008571326171,23.299999237060547,1793,0,12.449999809265137,25.5,-74.69999694824219,2779096485
0.029353307342529295,0.8865153930664063,9.53917223587036,-0.11402972608535675,-0.1488167216374286,-0.0931955573626381,23.299999237060547,1794,0,12.449999809265137,25.5,-74.69999694824219,2779096485
0.14016406784057617,0.8906935447692871,9.543670806121826,-0.12797127442757095,-0.15514291428957672,-0.10779327530342483,23.299999237060547,1795,0,12.449999809265137,25.5,-74.69999694824219,2779096485
0.08815502700805664,0.834382349395752,9.510038484954833,-0.13740702055244508,-0.1577869605227614,-0.11807512767451066,23.299999237060547,1796,0,12.75,25.350000381469727,-74.8499984741211,2779096485
0.15472716751098634,0.8533475685119629,9.511946827697754,-0.14526016989461013,-0.15922214468224488,-0.12673560097977968,23.299999237060547,1797,0,12.75,25.350000381469727,-74.8499984741211,2779096485
0.13356257095336913,0.8533544097900391,9.448559395599364,-0.15177978793540145,-0.16410517700749955,-0.13276148227366882,23.399999618530273,1798,0,12.75,25.350000381469727,-74.8499984741211,2779096485
0.1353003677368164,0.8772424331665039,9.342945015716552,-0.160923937896624,-0.16503063879574753,-0.13833898711161088,23.399999618530273,1799,0,12.75,25.350000381469727,-74.8499984741211,2779096485
0.10232368774414062,0.8859709693908692,9.223261940002441,-0.17446826244917724,-0.1718582181249765,-0.1380824314897612,23.399999618530273,1800,0,12.149999618530273,24.899999618530273,-74.8499984741211,2779096485
0.19314191589355467,0.9443680068969726,9.13968892440796,-0.18583087884641175,-0.17516435283221574,-0.14038773695042114,23.299999237060547,1801,0,12.149999618530273,24.899999618530273,-74.8499984741211,2779096485
0.20193045349121094,0.8995921409606933,9.103597219848632,-0.20487556311856034,-0.1775173887971846,-0.1458387616111618,23.200000762939453,1802,0,12.149999618530273,24.899999618530273,-74.8499984741211,2779096485
0.11174812774658202,0.8247307640075683,9.085425476837157,-0.21559747622514663,-0.18262597754941345,-0.14397264470075136,23.200000762939453,1803,0,12.899999618530273,24.600000381469727,-75.44999694824219,2779096485
0.04936912994384766,0.7707043312072753,9.12441519165039,-0.22761435140288466,-0.18717251947324906,-0.14237432860981614,23.299999237060547,1804,0,12.899999618530273,24.600000381469727,-75.44999694824219,2779096485
0.0008575149536132812,0.7463801483154296,9.120816941070556,-0.23568482134640945,-0.19276179548312836,-0.1405130919420697,23.399999618530273,1805,0,12.899999618530273,24.600000381469727,-75.44999694824219,2779096485
0.01657768783569336,0.7563880783081054,9.127826671600342,-0.23952926080108705,-0.19915841542981963,-0.13884926208876877,23.399999618530273,1806,0,12.899999618530273,24.600000381469727,-75.44999694824219,2779096485
0.01201769561767578,0.737902758026123,9.128914808654784,-0.24230802969499024,-0.20418627045415758,-0.13900303966695587,23.399999618530273,1807,0,12.300000190734863,24.299999237060547,-74.8499984741211,2779096485
0.0026548645019531247,0.7453763870239257,9.159232362365723,-0.24036661190527528,-0.21188941724895477,-0.1378056425016687,23.399999618530273,1808,0,12.300000190734863,24.299999237060547,-74.8499984741211,2779096485
-0.01514322509765625,0.7538412910461425,9.22487719192505,-0.23432383951228836,-0.21889518868549637,-0.1395224093391739,23.399999618530273,1809,0,12.300000190734863,24.299999237060547,-74.8499984741211,2779096485
-0.034551220703124996,0.7760697624206543,9.270522946929932,-0.22198892963935868,-0.22884688232061126,-0.1402546987390805,23.399999618530273,1810,0,12.300000190734863,24.299999237060547,-74.8499984741211,2779096485
-0.032815629577636715,0.8130938247680664,9.293598652648926,-0.2112641270030095,-0.2340915053403865,-0.1410906050783873,23.299999237060547,1811,0,12.75,24.75,-74.8499984741211,2779096485
-0.020546675872802733,0.8391872817993163,9.328341989898682,-0.1963195123589157,-0.24081803102274688,-0.14265820160635956,23.299999237060547,1812,0,12.75,24.75,-74.8499984741211,2779096485
0.006436072540283203,0.8598686897277832,9.322753189086914,-0.18286204014681579,-0.24654706972567306,-0.1427754006672258,23.299999237060547,1813,0,12.75,24.75,-74.8499984741211,2779096485
0.013358361816406249,0.8509440368652343,9.314498009490967,-0.16945115327976396,-0.24978588637892044,-0.144617595733309,23.5,1814,0,12.75,24.75,-74.8499984741211,2779096485
0.07069002914428711,0.864067813873291,9.32194808654785,-0.15486540624799483,-0.251209106287289,-0.14602102835491423,23.5,1815,0,12.0,24.450000762939453,-75.0,2779096485
0.26776971740722655,0.8899614158630371,9.34065172958374,-0.14203149988504624,-0.2516100917919638,-0.1525835166310585,23.5,1816,0,12.0,24.450000762939453,-75.0,2779096485
0.14341995544433594,0.7056426177978515,9.538016246795655,-0.12161111981385499,-0.25551066402413175,-0.15680725680138397,23.5,1817,0,12.0,24.450000762939453,-75.0,2779096485
0.010066136932373047,0.6810620552062988,9.55015357131958,-0.08791562748495377,-0.2612281645817145,-0.15572810398768372,23.399999618530273,1818,0,12.0,24.450000762939453,-75.0,2779096485
0.0004927963256835937,0.716031266784668,9.650287040710449,-0.05343505524580063,-0.2634884892518721,-0.15122217527019272,23.399999618530273,1819,0,11.550000190734863,24.299999237060547,-74.25,2779096485
0.09682924423217773,0.794899127960205,9.68380578918457,-0.026324361824922485,-0.2611397076867154,-0.14707113939712677,23.299999237060547,1820,0,11.550000190734863,24.299999237060547,-74.25,2779096485
0.18247875595092772,0.842544181060791,9.651792346191407,0.003225547453207245,-0.25683258394323255,-0.1450180153162561,23.200000762939453,1821,0,11.550000190734863,24.299999237060547,-74.25,2779096485
0.3885979782104492,0.8644241958618164,9.700251586151122,0.029736543606039886,-0.24907606074265426,-0.14323593445346558,23.200000762939453,1822,0,11.550000190734863,24.299999237060547,-74.25,2779096485
0.49939756088256837,0.708189330291748,9.841879650115967,0.06907924901393692,-0.22761720764313415,-0.15340505521638306,23.399999618530273,1823,0,12.899999618530273,24.450000762939453,-75.5999984741211,2779096485
0.3374159469604492,0.6628071327209473,9.772308450317382,0.10639409042372909,-0.21500725981051666,-0.1507725404706392,23.399999618530273,1824,0,12.899999618530273,24.450000762939453,-75.5999984741211,2779096485
0.245311222076416,0.7094037132263183,9.76521868057251,0.14666876239079193,-0.2010537805067009,-0.13801392167118973,23.399999618530273,1825,0,12.899999618530273,24.450000762939453,-75.5999984741211,2779096485
0.2801457763671875,0.827691616821289,9.735627797698974,0.17811586101113708,-0.1813380462234912,-0.12279970191599457,23.399999618530273,1826,0,11.850000381469727,25.200000762939453,-75.5999984741211,2779096485
0.34826808319091795,0.9723556381225585,9.671733438110351,0.20502185055623307,-0.1603920247357579,-0.11010928667159332,23.399999618530273,1827,0,11.850000381469727,25.200000762939453,-75.5999984741211,2779096485
0.7431337188720702,1.1396277282714844,9.573630519866944,0.22395660619724136,-0.1288916695518799,-0.10023515094479125,23.399999618530273,1828,0,11.850000381469727,25.200000762939453,-75.5999984741211,2779096485
1.1884563972473143,1.0948701805114747,9.479972974395752,0.22487458450287764,-0.08650170866662842,-0.11297434198422211,23.399999618530273,1829,0,11.850000381469727,25.200000762939453,-75.5999984741211,2779096485
0.9991428680419921,0.7038152862548828,9.586429616546631,0.2359977094828299,-0.04922002361217987,-0.12202041438107376,23.200000762939453,1830,0,12.0,24.450000762939453,-74.69999694824219,2779096485
1.0310579536437987,0.7055171195983887,9.422903855133056,0.24620538616016405,-0.016817768957636415,-0.12126422311054795,23.200000762939453,1831,0,12.0,24.450000762939453,-74.69999694824219,2779096485
0.9298306274414062,0.682848600769043,9.384007936859131,0.24906135343563537,0.024212701463694152,-0.11879198405600631,23.299999237060547,1832,0,12.0,24.450000762939453,-74.69999694824219,2779096485
0.7755069084167481,0.7539726211547851,9.232155975341797,0.2529108196068359,0.0584620514006929,-0.11521153710047134,23.299999237060547,1833,0,12.0,24.450000762939453,-74.69999694824219,2779096485
0.7368248641967773,0.8648256629943848,9.08367332458496,0.25159699569739336,0.09018392832252137,-0.10861799636623017,23.299999237060547,1834,0,12.600000381469727,25.049999237060547,-75.5999984741211,2779096485
0.6847782150268554,0.9696101173400878,9.068093753051757,0.24428489415857055,0.11903216789516724,-0.10488967073428207,23.299999237060547,1835,0,12.600000381469727,25.049999237060547,-75.5999984741211,2779096485
0.5365952346801758,0.9859719871520995,9.04887181777954,0.23074129531740936,0.1488486595965819,-0.09616568769535386,23.200000762939453,1836,0,12.600000381469727,25.049999237060547,-75.5999984741211,2779096485
0.4644317138671875,1.0582094161987303,9.068419816589355,0.22445535634486113,0.17898433115244905,-0.08556528797057007,23.200000762939453,1837,0,12.600000381469727,25.049999237060547,-75.5999984741211,2779096485
0.5072273475646972,1.0797951438903808,9.275814021301269,0.2092634472215448,0.2107003424620169,-0.07801803596701203,23.200000762939453,1838,0,12.149999618530273,25.200000762939453,-75.30000305175781,2779096485
0.36302296295166014,1.0430240966796875,9.296389295959472,0.1944660121740828,0.24231217756835954,-0.07110166684765,23.399999618530273,1839,0,12.149999618530273,25.200000762939453,-75.30000305175781,2779096485
0.2147147834777832,1.0634281524658202,9.239332214355468,0.18294823335490387,0.2721123507503069,-0.058127258764457096,23.399999618530273,1840,0,12.149999618530273,25.200000762939453,-75.30000305175781,2779096485
0.12752239532470702,1.0574119773864745,9.200294760131836,0.16742070601541947,0.29805829070273515,-0.043224369196455385,23.399999618530273,1841,0,12.149999618530273,25.200000762939453,-75.30000305175781,2779096485
0.061166820526123045,1.0503466941833495,9.18726541519165,0.14671909613504852,0.3205139583335188,-0.03001471077998703,23.299999237060547,1842,0,12.449999809265137,24.450000762939453,-75.1500015258789,2779096485
0.017364472198486327,1.029104376220703,9.17150311050415,0.12676795838680177,0.3314356284941965,-0.01649376878164398,23.200000762939453,1843,0,12.449999809265137,24.450000762939453,-75.1500015258789,2779096485
-0.028342779541015623,0.980890786743164,9.23797487487793,0.10587008019334351,0.34283841867619874,-0.002154976676060791,23.200000762939453,1844,0,12.449999809265137,24.450000762939453,-75.1500015258789,2779096485
-0.008168299102783202,0.9102693572998046,9.336231254577637,0.08753743198115066,0.3484722959761276,0.0054055711591481015,23.299999237060547,1845,0,12.449999809265137,24.450000762939453,-75.1500015258789,2779096485
0.003837471008300781,0.7446613052368164,9.563367182159423,0.06780533257315491,0.3528702867753795,0.016596713272873535,23.299999237060547,1846,0,12.75,25.5,-74.8499984741211,2779096485
-0.01270758056640625,0.6358598991394043,9.734465827178955,0.058457131210612794,0.3554155097590932,0.021690821086774597,23.299999237060547,1847,0,12.75,25.5,-74.8499984741211,2779096485
-0.028803201293945313,0.5398059997558594,9.878031542968749,0.0557742294573909,0.3536993221591211,0.027140733877767793,23.299999237060547,1848,0,12.75,25.5,-74.8499984741211,2779096485
-0.013815007781982422,0.4685042182922363,9.999980988311767,0.055517201124450986,0.3532044668845688,0.03130892050813599,23.200000762939453,1849,0,12.149999618530273,24.299999237060547,-74.55000305175781,2779096485
0.01490146255493164,0.4220160888671875,10.059262083435058,0.0578826940253331,0.3495583064295877,0.03484477948942673,23.200000762939453,1850,0,12.149999618530273,24.299999237060547,-74.55000305175781,2779096485
0.05302854080200195,0.3841129409790039,10.063982415771484,0.06124203869078644,0.3397338386567743,0.036408328012569886,23.299999237060547,1851,0,12.149999618530273,24.299999237060547,-74.55000305175781,2779096485
0.0811538200378418,0.34334845657348634,10.068890640258788,0.06066720203134598,0.33085446682721054,0.03454100602177444,23.299999237060547,1852,0,12.149999618530273,24.299999237060547,-74.55000305175781,2779096485
0.09121434936523437,0.2825890098571777,10.083413514709472,0.0594830540923909,0.31748383363975863,0.03422988888746674,23.299999237060547,1853,0,12.0,24.75,-76.05000305175781,2779096485
0.023607157135009764,-0.022769605255126953,10.351026107025147,0.05062142557346787,0.24959667544267333,0.02318269062967087,23.399999618530273,1857,0,12.75,25.200000762939453,-75.1500015258789,2779096485
0.035332173156738284,-0.062247443389892576,10.46533829345703,0.06224970560341751,0.23522854195998186,0.02427745622515442,23.299999237060547,1858,0,12.75,25.200000762939453,-75.1500015258789,2779096485
0.03600983352661133,-0.08328945770263671,10.485028202056885,0.07406728312234909,0.22345491325663727,0.020293720130617525,23.299999237060547,1859,0,12.75,25.200000762939453,-75.1500015258789,2779096485
0.027170191955566407,-0.09964078521728516,10.465700357818603,0.08168188646941238,0.2121468916613742,0.021030377114681854,23.299999237060547,1860,0,12.75,25.200000762939453,-75.1500015258789,2779096485
0.016558509826660156,-0.11018685836791992,10.411827087402344,0.08475629287389358,0.19982260114321823,0.019884438879204103,23.299999237060547,1861,0,12.75,25.049999237060547,-74.69999694824219,2779096485
0.003689392852783203,-0.13031341247558592,10.371089519500732,0.0881948332917189,0.18736714328437454,0.02118386840305374,23.299999237060547,1862,0,12.75,25.049999237060547,-74.69999694824219,2779096485
-0.003310842132568359,-0.14134547805786132,10.313484986114501,0.08727060321546662,0.1746277192183499,0.021231818618151092,23.299999237060547,1863,0,12.75,25.049999237060547,-74.69999694824219,2779096485
-0.030009658813476562,-0.14969957580566406,10.266249250793457,0.08305564481877534,0.1620130575906354,0.020387696426937867,23.399999618530273,1864,0,12.75,25.049999237060547,-74.69999694824219,2779096485
-0.05344047546386719,-0.1514920654296875,10.245646760559081,0.08204841066981843,0.1479181111706868,0.019263596112248687,23.399999618530273,1865,0,12.449999809265137,24.75,-74.4000015258789,2779096485
-0.07365342407226562,-0.12678678970336912,10.209567205810547,0.08120715803466004,0.13645062614834838,0.021208256300568544,23.399999618530273,1866,0,12.449999809265137,24.75,-74.4000015258789,2779096485
-0.10073856735229492,-0.08561526794433594,10.13658146057129,0.07749218149758423,0.12281751846356476,0.02199340944774994,23.399999618530273,1867,0,12.449999809265137,24.75,-74.4000015258789,2779096485
-0.11839018630981445,-0.026775267028808593,10.088668064880371,0.07133234320178466,0.10945645934016586,0.023419918360042116,23.399999618530273,1868,0,12.449999809265137,24.75,-74.4000015258789,2779096485
-0.17502864151000977,0.053879513549804685,9.98821410217285,0.05846536703622726,0.09091012574147629,0.027785425252120972,23.399999618530273,1869,0,12.149999618530273,24.75,-74.25,2779096485
-0.19939734878540039,0.11711030654907226,9.889690426635742,0.04651927867977707,0.07690210489891053,0.03312538943826584,23.299999237060547,1870,0,12.149999618530273,24.75,-74.25,2779096485
-0.22840354537963867,0.17506819381713867,9.851516842651368,0.03494872932396088,0.06276024689668258,0.03837637075509995,23.299999237060547,1871,0,12.149999618530273,24.75,-74.25,2779096485
-0.2506191192626953,0.21211816329956054,9.848410117340087,0.026601130839306947,0.05112045535300019,0.04206809123811645,23.299999237060547,1872,0,12.149999618530273,24.450000762939453,-75.5999984741211,2779096485
-0.23896793670654295,0.23225417556762695,9.856266297149658,0.021087182340342864,0.04261113641226257,0.05180233111381805,23.200000762939453,1873,0,12.149999618530273,24.450000762939453,-75.5999984741211,2779096485
-0.22296360778808594,0.260245320892334,9.845672185516356,0.019244707642347106,0.039762446224419865,0.05788393239523148,23.100000381469727,1874,0,12.149999618530273,24.450000762939453,-75.5999984741211,2779096485
-0.1864378746032715,0.2909996322631836,9.819082904052735,0.018545521334562682,0.03910475196613373,0.06513231780541198,23.100000381469727,1875,0,12.149999618530273,24.450000762939453,-75.5999984741211,2779096485
-0.15736864852905272,0.3244531455993652,9.778173556518555,0.018013708042236787,0.046034949549360965,0.07534283740719025,23.200000762939453,1876,0,13.649999618530273,24.75,-74.69999694824219,2779096485
-0.13573308792114258,0.35418500366210937,9.729001328277588,0.016596793167705688,0.055554472063650516,0.08527525641404815,23.200000762939453,1877,0,13.649999618530273,24.75,-74.69999694824219,2779096485
-0.12271802368164061,0.3881007705688476,9.669270877075196,0.017517068449766388,0.06829064707316758,0.09554953874978744,23.200000762939453,1878,0,13.649999618530273,24.75,-74.69999694824219,2779096485
-0.12320887603759766,0.42179642028808595,9.615096029663086,0.015566482728061829,0.08311429428347855,0.10582788906406387,23.299999237060547,1879,0,13.649999618530273,24.75,-74.69999694824219,2779096485
-0.13059943771362303,0.4674310348510742,9.560321617126464,0.014592697882166442,0.09890122016925675,0.11954214992460724,23.399999618530273,1880,0,12.899999618530273,24.149999618530273,-74.55000305175781,2779096485
-0.14607336196899415,0.5020693977355957,9.51222642288208,0.014008660001222991,0.11890372363667541,0.12997724724166582,23.399999618530273,1881,0,12.899999618530273,24.149999618530273,-74.55000305175781,2779096485
-0.1554171272277832,0.5363030784606934,9.444888470458984,0.01526744968711731,0.13456237171152877,0.14639721317210816,23.399999618530273,1882,0,12.899999618530273,24.149999618530273,-74.55000305175781,2779096485
-0.15904965896606446,0.5864718528747559,9.380960465240479,0.013642129142914277,0.15173416132833922,0.16173533649616775,23.399999618530273,1883,0,12.899999618530273,24.149999618530273,-74.55000305175781,2779096485
-0.1235994644165039,0.6715432579040527,9.230585135650635,0.014389239034185333,0.16866490823654312,0.17697696683669417,23.399999618530273,1884,0,12.0,24.450000762939453,-75.30000305175781,2779096485
-0.046528691101074215,0.7541343070983887,9.069232956695556,0.007406230966904755,0.18877716722963242,0.18861679832779266,23.399999618530273,1885,0,12.0,24.450000762939453,-75.30000305175781,2779096485
-0.011703445434570312,0.8154019897460937,8.922116841888428,-0.0019374097323019408,0.2039324978356279,0.19855176065347413,23.299999237060547,1886,0,12.0,24.450000762939453,-75.30000305175781,2779096485
-0.01274107666015625,0.806153067779541,8.919331021118163,-0.007214756343746643,0.2154663155423616,0.20631605362647934,23.200000762939453,1887,0,12.0,24.450000762939453,-75.30000305175781,2779096485
0.01735804214477539,0.8135456108093262,8.91172247314453,-0.009856272573913116,0.22286905776826232,0.21218471520649612,23.200000762939453,1888,0,12.75,24.75,-74.0999984741211,2779096485
0.001569867706298828,0.7983520294189453,8.897966494750976,-0.008979513343765259,0.230195513745262,0.21396929278279145,23.299999237060547,1889,0,12.75,24.75,-74.0999984741211,2779096485
-0.008521204376220703,0.7799034202575683,8.886321779632569,-0.009348188046736755,0.2371048987247133,0.21421794547416062,23.299999237060547,1890,0,12.75,24.75,-74.0999984741211,2779096485
-0.019214944458007813,0.7921865051269531,8.879083969116211,-0.009958324906183624,0.2366648646208235,0.21530816372211412,23.299999237060547,1891,0,12.75,24.75,-74.0999984741211,2779096485
-0.009034711456298828,0.8302737319946288,8.886176430511474,-0.008270353497767028,0.23560380132870332,0.21168661753333892,23.399999618530273,1892,0,13.350000381469727,25.5,-74.69999694824219,2779096485
-0.016905321502685547,0.8492392501831054,8.86601675415039,-0.00964764719345276,0.2291230787553653,0.20926941936024826,23.399999618530273,1893,0,13.350000381469727,25.5,-74.69999694824219,2779096485
-0.051053392791748045,0.8289646926879882,8.867198837280274,-0.007615222532012481,0.22108955351380874,0.20313344298765182,23.399999618530273,1894,0,13.350000381469727,25.5,-74.69999694824219,2779096485
-0.019734918975830077,0.8750036529541015,8.8496104347229,-0.003869027089272766,0.20822293687499605,0.19691357704129442,23.299999237060547,1895,0,13.199999809265137,24.600000381469727,-75.44999694824219,2779096485
-0.002951207733154297,0.9045822364807129,8.845890872955321,0.0006908106662136841,0.19251578597912292,0.19006895348120606,23.200000762939453,1896,0,13.199999809265137,24.600000381469727,-75.44999694824219,2779096485
0.0015034736633300781,0.8951007484436034,8.84386929397583,0.008214686773464203,0.17609146578032822,0.18403095480444032,23.200000762939453,1897,0,13.199999809265137,24.600000381469727,-75.44999694824219,2779096485
0.010822154235839843,0.9256855979919433,8.813479028320312,0.010992450324062805,0.15927279800583008,0.17421288527610185,23.299999237060547,1898,0,13.199999809265137,24.600000381469727,-75.44999694824219,2779096485
0.0081921875,0.9224721412658691,8.795309565734863,0.014542011269067841,0.14129002257944198,0.16783545340493272,23.299999237060547,1899,0,12.899999618530273,24.299999237060547,-75.0,2779096485
0.021847154235839845,0.9499931823730469,8.765876518249511,0.01573382245400696,0.12219883285707749,0.15902487102585297,23.299999237060547,1900,0,12.899999618530273,24.299999237060547,-75.0,2779096485
-0.027938209533691406,0.9599384193420409,8.679031539916991,0.013789981187716675,0.10069007877697495,0.15113912459216935,23.299999237060547,1901,0,12.899999618530273,24.299999237060547,-75.0,2779096485
-0.026580421447753907,0.9965776130676269,8.63467942199707,0.008706932150166168,0.07827361953507049,0.1423620314635672,23.299999237060547,1902,0,12.899999618530273,24.299999237060547,-75.0,2779096485
-0.05639101028442382,1.0281010261535644,8.601161421203614,0.0017026520838247681,0.05596168936523331,0.13558324790307585,23.299999237060547,1903,0,12.899999618530273,25.049999237060547,-75.30000305175781,2779096485
-0.04746852569580078,1.1106795516967773,8.49701455154419,-0.009643173082852173,0.02968971191859268,0.12566530983454574,23.399999618530273,1904,0,12.899999618530273,25.049999237060547,-75.30000305175781,2779096485
-0.016281157684326173,1.1104922576904297,8.477943797302245,-0.02483016201608841,0.005572145226285095,0.11530088615442947,23.399999618530273,1905,0,12.899999618530273,25.049999237060547,-75.30000305175781,2779096485
-0.0064275863647460935,1.0812022789001465,8.48683383255005,-0.04604593508878205,-0.021375589368610993,0.10297393247520172,23.399999618530273,1906,0,12.899999618530273,25.049999237060547,-75.30000305175781,2779096485
0.03000722885131836,1.0746134552001954,8.464298587799073,-0.06631840985194946,-0.04454090953019119,0.09334631891091141,23.399999618530273,1907,0,13.199999809265137,24.75,-74.8499984741211,2779096485
0.06011128234863281,1.0726527000427246,8.48142544708252,-0.08916431047458069,-0.06562042862455002,0.08362644678919205,23.200000762939453,1908,0,13.199999809265137,24.75,-74.8499984741211,2779096485
0.08717825698852538,1.0577541160583497,8.536319974517822,-0.11351407818073654,-0.08829746486152253,0.07374207786597169,23.200000762939453,1909,0,13.199999809265137,24.75,-74.8499984741211,2779096485
0.09357784271240234,1.0510203544616699,8.62665202331543,-0.13370837585064194,-0.10651533748942443,0.06464057177141098,23.200000762939453,1910,0,13.199999809265137,24.75,-74.8499984741211,2779096485
0.08081915817260742,1.0271656028747558,8.740937629699706,-0.1532018427108011,-0.12537715580657943,0.05354688803710724,23.200000762939453,1911,0,13.050000190734863,24.149999618530273,-75.0,2779096485
0.052198241424560546,1.00515078125,8.858305437469483,-0.16686317324504288,-0.1391786085606128,0.04612754100192398,23.200000762939453,1912,0,13.050000190734863,24.149999618530273,-75.0,2779096485
0.03371935119628906,0.9854285728454589,8.972749402618408,-0.17641843538091567,-0.15449277009292908,0.0396952280389682,23.200000762939453,1913,0,13.050000190734863,24.149999618530273,-75.0,2779096485
0.01950082015991211,0.9656551483154296,9.089087130737305,-0.18564843233928696,-0.16549652553574157,0.03596206876967484,23.200000762939453,1914,0,13.050000190734863,24.149999618530273,-75.0,2779096485
-0.005054096984863281,0.9394089401245117,9.25016221923828,-0.19600400766674225,-0.18153964751662477,0.031616222664208375,23.200000762939453,1915,0,13.199999809265137,24.450000762939453,-74.8499984741211,2779096485
-0.02764134292602539,0.9075556129455566,9.336907905578613,-0.19894347835761916,-0.18969204961052277,0.03219882243817306,23.299999237060547,1916,0,13.199999809265137,24.450000762939453,-74.8499984741211,2779096485
-0.04827097396850586,0.8642327896118164,9.424073526763916,-0.20228306236791993,-0.19580203353105866,0.032326634195910336,23.399999618530273,1917,0,13.199999809265137,24.450000762939453,-74.8499984741211,2779096485
-0.05860362167358398,0.813250015258789,9.554293516540527,-0.20357244511662628,-0.20314110623363588,0.034529980534937284,23.399999618530273,1918,0,13.350000381469727,24.75,-75.30000305175781,2779096485
-0.027110713958740235,0.8045079460144042,9.629514640045166,-0.2010230409700299,-0.21036021684573486,0.03988868005922211,23.399999618530273,1919,0,13.350000381469727,24.75,-75.30000305175781,2779096485
0.011750624084472656,0.7814274551391601,9.702520610046387,-0.2005816952593123,-0.2126588244562993,0.043879233846102754,23.399999618530273,1920,0,13.350000381469727,24.75,-75.30000305175781,2779096485
0.05097787704467773,0.761844165802002,9.793107580566407,-0.20031923407778596,-0.2131786202342888,0.04605325212382675,23.399999618530273,1921,0,13.350000381469727,24.75,-75.30000305175781,2779096485
0.09715224227905273,0.7381074356079101,9.879907884979248,-0.19491631942180696,-0.21046396028528594,0.04819803555088532,23.399999618530273,1922,0,13.649999618530273,23.549999237060547,-75.0,2779096485
0.13161572265625,0.7326281700134277,9.975940811920166,-0.19047888054917939,-0.20611806757450074,0.052423007433206485,23.399999618530273,1923,0,13.649999618530273,23.549999237060547,-75.0,2779096485
0.1747660186767578,0.735157723236084,10.049115757751464,-0.18115263694967407,-0.1945714666946225,0.054615528022476656,23.399999618530273,1924,0,13.649999618530273,23.549999237060547,-75.0,2779096485
0.21276685104370116,0.7361221939086914,10.098081289672852,-0.17158154897913225,-0.1825963232508792,0.05761923415840485,23.399999618530273,1925,0,13.649999618530273,23.549999237060547,-75.0,2779096485
0.24955617904663085,0.7605617813110351,10.097456303405762,-0.16230717709940246,-0.16554414951360763,0.06060429150892792,23.399999618530273,1926,0,13.050000190734863,24.450000762939453,-74.69999694824219,2779096485
0.266909024810791,0.7844771697998046,10.067578498077392,-0.1519832068359665,-0.14723891854464874,0.062042491698325195,23.299999237060547,1927,0,13.050000190734863,24.450000762939453,-74.69999694824219,2779096485
0.2639999862670898,0.8039930931091308,10.05052954711914,-0.14470561986463396,-0.1287970873864157,0.06729463814812821,23.299999237060547,1928,0,13.050000190734863,24.450000762939453,-74.69999694824219,2779096485
0.25431606369018556,0.8289810668945312,10.042920438385009,-0.13689528749460037,-0.11349904463648636,0.07201270096079163,23.299999237060547,1929,0,13.050000190734863,24.450000762939453,-74.69999694824219,2779096485
0.24284395065307615,0.8430558937072754,10.046006116485595,-0.12655541150166322,-0.09757440669168656,0.07626704085183182,23.299999237060547,1930,0,13.5,24.0,-74.69999694824219,2779096485
0.22360343551635742,0.8451930267333984,10.070106182098389,-0.11796218301345658,-0.08129185987254792,0.080616735225047,23.299999237060547,1931,0,13.5,24.0,-74.69999694824219,2779096485
0.19597214889526365,0.8402947463989258,10.092579182434081,-0.1075295824099028,-0.06545015276352326,0.08459987210834274,23.399999618530273,1932,0,13.5,24.0,-74.69999694824219,2779096485
0.17256421127319335,0.8345894569396972,10.115425312805176,-0.09579762551942886,-0.04988511480034286,0.0896650912825177,23.399999618530273,1933,0,13.5,24.0,-74.69999694824219,2779096485
0.14991359939575194,0.8344104248046875,10.142639991760253,-0.08554084015193116,-0.03539889675572876,0.09356258756364777,23.399999618530273,1934,0,12.75,24.299999237060547,-75.44999694824219,2779096485
0.12876776962280273,0.8488782325744628,10.171217206573486,-0.07109545502445007,-0.020468430154828795,0.09644795613735153,23.399999618530273,1935,0,12.75,24.299999237060547,-75.44999694824219,2779096485
0.11255203399658202,0.8758456161499023,10.177780347442626,-0.05568673795828034,-0.007125220868513489,0.10250466352064652,23.399999618530273,1936,0,12.75,24.299999237060547,-75.44999694824219,2779096485
0.08838849029541015,0.9062667610168457,10.15663197555542,-0.039847793878867645,0.008373650857838593,0.10882393861191071,23.399999618530273,1937,0,12.75,24.299999237060547,-75.44999694824219,2779096485
0.07232733764648437,0.9401679107666016,10.094838262176513,-0.01624237303437088,0.020896566586630402,0.11449191103146103,23.399999618530273,1938,0,11.399999618530273,24.0,-76.05000305175781,2779096485
0.05118270416259765,0.9449285057067871,10.064170719146729,-0.003094180375439148,0.026114418179731598,0.11786722134753967,23.299999237060547,1939,0,11.399999618530273,24.0,-76.05000305175781,2779096485
0.03474486999511719,0.943348282623291,10.029586376190185,0.01216765669971939,0.030184247613816377,0.11997298280699402,23.299999237060547,1940,0,11.399999618530273,24.0,-76.05000305175781,2779096485
0.025050479888916014,0.9488927833557128,9.990511612701416,0.024465788318247833,0.03298923532847122,0.12136911836726258,23.299999237060547,1941,0,12.0,24.0,-75.0,2779096485
0.03365606002807617,0.9713296333312988,9.964358715057372,0.036766902677176666,0.03454969458477112,0.12412780702668458,23.299999237060547,1942,0,12.0,24.0,-75.0,2779096485
0.05203726577758789,0.9922869728088378,9.9178776512146,0.04732545082571747,0.035707923308595124,0.1219139412014241,23.299999237060547,1943,0,12.0,24.0,-75.0,2779096485
0.07356766510009766,0.9965406028747559,9.853995703125,0.05735217236612702,0.037847000913057406,0.12015072217692443,23.299999237060547,1944,0,12.0,24.0,-75.0,2779096485
0.08292903823852539,0.9771577293395995,9.767340822601318,0.06341725539099274,0.0375798991733635,0.11867753470894668,23.200000762939453,1945,0,13.050000190734863,24.600000381469727,-75.30000305175781,2779096485
0.07414390258789062,0.9691014328002929,9.674013303375244,0.06874466943058685,0.03684161766104538,0.11558305472788696,23.200000762939453,1946,0,13.050000190734863,24.600000381469727,-75.30000305175781,2779096485
0.05860429458618164,0.9914837394714355,9.587543062591552,0.06848895270447479,0.035025221967845,0.1129644949461592,23.200000762939453,1947,0,13.050000190734863,24.600000381469727,-75.30000305175781,2779096485
0.040410756683349605,1.0268493339538574,9.525989167785644,0.06967041085074738,0.0317295401678125,0.1080858501787703,23.399999618530273,1948,0,13.050000190734863,24.600000381469727,-75.30000305175781,2779096485
0.01838554229736328,1.0777414146423339,9.488196452331543,0.06507174420683441,0.027620582239680634,0.10748388922381379,23.399999618530273,1949,0,12.75,24.0,-75.0,2779096485
-0.008556719207763672,1.1053798789978027,9.480112267303467,0.060282182177296445,0.02384290823307251,0.10687998416127488,23.399999618530273,1950,0,12.75,24.0,-75.0,2779096485
-0.0335177017211914,1.1138404090881346,9.481147917175292,0.055059283893964237,0.018987566125061646,0.10619081799702301,23.399999618530273,1951,0,12.75,24.0,-75.0,2779096485
-0.05252942657470703,1.1005205154418944,9.4990328125,0.04747494071457901,0.015328729023378906,0.10939912814019317,23.399999618530273,1952,0,12.75,24.0,-75.0,2779096485
-0.0696301170349121,1.080486449432373,9.517912197875976,0.039189080961471556,0.012919826597026824,0.11197166849860062,23.399999618530273,1953,0,12.449999809265137,24.899999618530273,-74.69999694824219,2779096485
-0.07608473205566406,1.0629991706848143,9.531109098052978,0.03272134129835846,0.009965242467067566,0.1167114427319017,23.399999618530273,1954,0,12.449999809265137,24.899999618530273,-74.69999694824219,2779096485
-0.06720374374389648,1.0503687133789061,9.560168865966796,0.027366676463097383,0.007510180801438904,0.12099097612668092,23.200000762939453,1955,0,12.449999809265137,24.899999618530273,-74.69999694824219,2779096485
-0.05749682998657226,1.0302621597290038,9.590241329956054,0.021870497906384734,0.006016214019198609,0.12536150973528273,23.200000762939453,1956,0,12.449999809265137,24.899999618530273,-74.69999694824219,2779096485
-0.04788603057861328,1.0189107971191407,9.617151515960693,0.016142637652232818,0.0026914172107489016,0.13073766628039307,23.299999237060547,1957,0,11.850000381469727,23.850000381469727,-74.69999694824219,2779096485
-0.032271729278564455,1.0066877136230468,9.642934610748291,0.013056566602257232,0.0003072888402670288,0.13556050450752288,23.399999618530273,1958,0,11.850000381469727,23.850000381469727,-74.69999694824219,2779096485
-0.01161574249267578,0.984971590423584,9.661826930999755,0.009488936109380189,-0.003976352480465393,0.13866650266021804,23.399999618530273,1959,0,11.850000381469727,23.850000381469727,-74.69999694824219,2779096485
0.009746578216552735,0.9721061370849609,9.684635041809083,0.0064262809031282045,-0.003592264732790985,0.1431120708320172,23.399999618530273,1960,0,11.850000381469727,23.850000381469727,-74.69999694824219,2779096485
0.04642543640136718,0.9668815315246582,9.67215438232422,0.009559183640550995,-0.008074691053823548,0.14737067843867493,23.299999237060547,1961,0,12.0,24.450000762939453,-74.69999694824219,2779096485
0.0869416160583496,0.9685190643310546,9.662166901397704,0.007468781962578125,-0.010025263459722747,0.1503727999937654,23.299999237060547,1962,0,12.0,24.450000762939453,-74.69999694824219,2779096485
0.11833302612304687,0.9728400978088378,9.635757437133789,0.006165497513077088,-0.01209208284640503,0.15011294871008943,23.299999237060547,1963,0,12.0,24.450000762939453,-74.69999694824219,2779096485
0.14564823074340819,0.9747128135681152,9.592325452423095,0.0031710458618733213,-0.012461363418520355,0.15473999799312485,23.200000762939453,1964,0,12.0,24.450000762939453,-74.69999694824219,2779096485
0.1796312515258789,0.986902961730957,9.58574638595581,0.0022169883816171264,-0.014530120254882355,0.15420731251554795,23.200000762939453,1965,0,12.600000381469727,24.600000381469727,-74.69999694824219,2779096485
0.21554418563842773,0.9916245277404785,9.61827984085083,0.001177343562416687,-0.017225399049185332,0.15385820538855133,23.200000762939453,1966,0,12.600000381469727,24.600000381469727,-74.69999694824219,2779096485
0.25520113067626954,0.9731902366638183,9.677841652679444,0.0034904587429196166,-0.019773025535766296,0.15241379337595412,23.399999618530273,1967,0,12.600000381469727,24.600000381469727,-74.69999694824219,2779096485
0.25785352783203125,0.9518107192993164,9.71202071533203,0.007963830316308136,-0.022163685308776705,0.15240809421126053,23.399999618530273,1968,0,12.600000381469727,24.600000381469727,-74.69999694824219,2779096485
0.25444290771484374,0.9379152236938476,9.739162981414795,0.012674709251980438,-0.021098554038119353,0.15048651697153032,23.399999618530273,1969,0,12.600000381469727,24.600000381469727,-75.1500015258789,2779096485
0.2655033477783203,0.9321055206298828,9.751379597473145,0.019018425503980866,-0.02213190713928772,0.1506462933200316,23.299999237060547,1970,0,12.600000381469727,24.600000381469727,-75.1500015258789,2779096485
0.26929950942993164,0.9408952171325683,9.73031481628418,0.02148518510461731,-0.0240846566793631,0.1465633811071817,23.0,1971,0,12.600000381469727,24.600000381469727,-75.1500015258789,2779096485
0.2672334060668945,0.9553688568115234,9.708300704956054,0.024802125587905274,-0.024171149493071746,0.14655215588326417,23.0,1972,0,12.600000381469727,24.600000381469727,-75.1500015258789,2779096485
0.26335294342041016,0.9681471305847168,9.676501509857177,0.02735654313521927,-0.026336232865399933,0.14157226438982895,23.100000381469727,1973,0,11.850000381469727,24.600000381469727,-75.1500015258789,2779096485
0.2618332077026367,0.9787680465698242,9.647250709533692,0.02797024197259964,-0.029328081276656037,0.14185993239089967,23.399999618530273,1974,0,11.850000381469727,24.600000381469727,-75.1500015258789,2779096485
0.2534148094177246,0.9869217658996582,9.617903645324708,0.02973593773689606,-0.03419121313080185,0.13834005903394225,23.399999618530273,1975,0,11.850000381469727,24.600000381469727,-75.1500015258789,2779096485
0.24865163497924803,1.0002022941589355,9.583468838500977,0.03149261204306183,-0.03813588065241577,0.1384383496511989,23.399999618530273,1976,0,11.850000381469727,24.600000381469727,-75.1500015258789,2779096485
0.28374851303100584,1.0235171081542969,9.511138472747803,0.02878752615811203,-0.038066232332486113,0.1363649522566693,23.399999618530273,1977,0,11.699999809265137,24.299999237060547,-75.0,2779096485
0.2932103370666504,1.0184333656311035,9.501367333221435,0.02181040367680008,-0.03953409347832031,0.13331579927705123,23.399999618530273,1978,0,11.699999809265137,24.299999237060547,-75.0,2779096485
0.2857293060302734,1.020670725250244,9.592828865814209,0.022262548505663757,-0.04492823967647049,0.13188443675370576,23.399999618530273,1979,0,11.699999809265137,24.299999237060547,-75.0,2779096485
0.28916901092529296,1.025205034637451,9.680753158569336,0.02222939215032013,-0.04898978002171936,0.12800100862093736,23.299999237060547,1980,0,12.0,25.649999618530273,-74.69999694824219,2779096485
0.30911320571899414,1.0502554397583008,9.678417740631103,0.02537820727514679,-0.050899399668237304,0.12455603001122101,23.200000762939453,1981,0,12.0,25.649999618530273,-74.69999694824219,2779096485
0.3307662994384766,1.0808738975524903,9.644163162231445,0.02426260910217926,-0.04972908685105011,0.12075484695025177,23.200000762939453,1982,0,12.0,25.649999618530273,-74.69999694824219,2779096485
0.33930559768676755,1.0843055274963378,9.75082586517334,0.02421945923491379,-0.05247244236060135,0.11777991626970413,23.399999618530273,1983,0,12.0,25.649999618530273,-74.69999694824219,2779096485
0.3440445472717285,1.1203213424682616,9.778810543060303,0.028780095938721773,-0.05452946797244217,0.11478469230178955,23.399999618530273,1984,0,11.850000381469727,24.0,-74.69999694824219,2779096485
0.34667324295043944,1.1527629447937011,9.771393625640869,0.030957416536174773,-0.05214924113293045,0.10951709951777024,23.399999618530273,1985,0,11.850000381469727,24.0,-74.69999694824219,2779096485
0.3584207641601562,1.1840069122314452,9.76677280960083,0.02919445051197693,-0.050692944764050445,0.1047177770029042,23.399999618530273,1986,0,11.850000381469727,24.0,-74.69999694824219,2779096485
0.36102489852905273,1.215553727722168,9.762621499633788,0.026207728685783995,-0.046552834509281465,0.09810283776945129,23.299999237060547,1987,0,11.850000381469727,24.0,-74.69999694824219,2779096485
0.33903022689819334,1.2364443740844726,9.76167463684082,0.02235404140428467,-0.04095730672878616,0.09184891665088853,23.299999237060547,1988,0,11.850000381469727,24.450000762939453,-75.0,2779096485
0.29674469833374023,1.267702360534668,9.777035960388183,0.020504822250874633,-0.03453806322879013,0.08730551059921493,23.299999237060547,1989,0,11.850000381469727,24.450000762939453,-75.0,2779096485
0.25617550811767575,1.293135092163086,9.808224786376952,0.012379058425597077,-0.030986438333954466,0.08388053898705032,23.299999237060547,1990,0,11.850000381469727,24.450000762939453,-75.0,2779096485
0.19010173416137693,1.3067910682678223,9.833909934997559,0.009744379861482392,-0.024653874068942108,0.07979289966329804,23.299999237060547,1991,0,11.850000381469727,24.450000762939453,-75.0,2779096485
0.12847972564697266,1.325569441986084,9.878869244384765,0.006156575923486634,-0.02142333318872528,0.08033729639168809,23.299999237060547,1992,0,12.0,24.0,-74.69999694824219,2779096485
0.0805832649230957,1.332771849822998,9.934717737579346,0.0004672382942379761,-0.016026676961264953,0.08269230975375275,23.299999237060547,1993,0,12.0,24.0,-74.69999694824219,2779096485
0.04951253509521484,1.3357376373291014,10.000725603485106,-0.0007991547165162659,-0.009758900747226257,0.08674693253811767,23.299999237060547,1994,0,12.0,24.0,-74.69999694824219,2779096485
-0.010547007751464844,1.3174129188537598,10.057163493347169,-0.0034373153637322997,-0.0033550636340304568,0.09117035652560501,23.299999237060547,1995,0,12.0,24.0,-74.69999694824219,2779096485
-0.07017360610961913,1.2977723571777344,10.10005591430664,-0.0060416072600180054,0.005228597448025818,0.09784533672542114,23.200000762939453,1996,0,12.0,24.149999618530273,-75.30000305175781,2779096485
-0.14296525344848632,1.2827883880615234,10.154913319396972,-0.0046697530708213805,0.010864039355084381,0.10750869656919738,23.100000381469727,1997,0,12.0,24.149999618530273,-75.30000305175781,2779096485
-0.2153259002685547,1.2745220680236815,10.173528661346435,-0.004256250709109192,0.01758926674642227,0.11780584214273788,23.100000381469727,1998,0,12.0,24.149999618530273,-75.30000305175781,2779096485
-0.26028322830200196,1.2781022994995117,10.184200008392335,-0.0027401796899731447,0.020826938240408783,0.13028883708706376,23.299999237060547,1999,0,12.0,24.149999618530273,-75.30000305175781,2779096485
-0.28407121200561525,1.287037345123291,10.203507852172851,-0.0013578792514724733,0.02588440095796219,0.14375808047110092,23.299999237060547,2000,0,11.399999618530273,23.850000381469727,-74.69999694824219,2779096485
-0.2913461074829101,1.2919037742614745,10.22842614212036,0.0014211426427325439,0.028878286687438203,0.15813468280600068,23.299999237060547,2001,0,11.399999618530273,23.850000381469727,-74.69999694824219,2779096485
-0.29658095626831055,1.292383486175537,10.275842105865479,0.005310875809338379,0.032914373870743564,0.1726828592929497,23.299999237060547,2002,0,11.399999618530273,23.850000381469727,-74.69999694824219,2779096485
-0.29185340881347654,1.278742463684082,10.309087913513183,0.01017760958883377,0.03678374717095566,0.18532825379943252,23.200000762939453,2003,0,11.399999618530273,23.850000381469727,-74.69999694824219,2779096485
-0.2589046546936035,1.265476926422119,10.330466496276856,0.014444006941626434,0.03886002077944275,0.1970770751573935,23.200000762939453,2004,0,12.0,24.450000762939453,-75.30000305175781,2779096485
-0.21608842239379883,1.2435896217346192,10.350128703308105,0.020900035353926393,0.04375004390251083,0.20917210079678283,23.299999237060547,2005,0,12.0,24.450000762939453,-75.30000305175781,2779096485
-0.15409586334228514,1.212358925628662,10.37384726486206,0.025427136201938018,0.05022324304582108,0.21882304365206193,23.299999237060547,2006,0,12.0,24.450000762939453,-75.30000305175781,2779096485
-0.09385156860351562,1.181965444946289,10.38759479446411,0.03483187647403397,0.05659151364290329,0.22827529471767838,23.299999237060547,2007,0,12.0,24.450000762939453,-75.30000305175781,2779096485
-0.0010375190734863281,1.1440921295166016,10.40062664413452,0.0435153395172551,0.06457512458807205,0.23156524406350387,23.299999237060547,2008,0,12.300000190734863,24.299999237060547,-75.1500015258789,2779096485
0.06854934463500977,1.1282491500854492,10.402168436431884,0.05029482881543045,0.07198009055346771,0.23767227187525009,23.200000762939453,2009,0,12.300000190734863,24.299999237060547,-75.1500015258789,2779096485
0.12229995803833008,1.1189353668212891,10.399509534454346,0.05681808207108475,0.08006164590495377,0.2378023073724823,23.200000762939453,2010,0,12.300000190734863,24.299999237060547,-75.1500015258789,2779096485
0.15495692977905273,1.1069920280456542,10.401278434753417,0.06301666270257598,0.08897059879612229,0.23494507509550186,23.299999237060547,2011,0,11.850000381469727,24.75,-75.0,2779096485
0.16672871322631835,1.0989331520080565,10.409839490509032,0.07070010210544204,0.09700859814827942,0.23507371909107408,23.399999618530273,2012,0,11.850000381469727,24.75,-75.0,2779096485
0.17141958694458007,1.1007516609191894,10.432302172851562,0.07634689573656907,0.10676944300308808,0.23230344568098985,23.399999618530273,2013,0,11.850000381469727,24.75,-75.0,2779096485
0.16940140991210936,1.111463345336914,10.462266596984863,0.08320691902555497,0.11589638228588425,0.2307978342269632,23.399999618530273,2014,0,11.850000381469727,24.75,-75.0,2779096485
0.16818680267333982,1.1097756431579588,10.482914209747314,0.08901577932370498,0.12448202076503631,0.2301122100669368,23.299999237060547,2015,0,10.649999618530273,24.600000381469727,-75.1500015258789,2779096485
0.16326620407104492,1.1083540031433106,10.484522620391845,0.0981500889047673,0.13491440831570434,0.23212637875923003,23.299999237060547,2016,0,10.649999618530273,24.600000381469727,-75.1500015258789,2779096485
0.16140373153686524,1.1041804496765137,10.461830549621581,0.10388552585216843,0.14380254860309694,0.23225632104582475,23.299999237060547,2017,0,10.649999618530273,24.600000381469727,-75.1500015258789,2779096485
0.15682594451904297,1.1021099723815917,10.456263132476806,0.1100954648656308,0.15338693906319228,0.23202390697909073,23.299999237060547,2018,0,10.649999618530273,24.600000381469727,-75.1500015258789,2779096485
0.15958585815429688,1.0909973815917968,10.44293407974243,0.11776425688260209,0.16121284426759308,0.2315180195597986,23.299999237060547,2019,0,12.75,24.149999618530273,-74.25,2779096485
0.1528186004638672,1.0731846000671386,10.421390072631835,0.12184099056176545,0.17044451901743957,0.23002270122331436,23.299999237060547,2020,0,12.75,24.149999618530273,-74.25,2779096485
0.14763911743164063,1.0669449058532714,10.392067719268798,0.12626943460787307,0.17852474944629243,0.230250574600421,23.299999237060547,2021,0,12.75,24.149999618530273,-74.25,2779096485
0.15473804626464843,1.058337643432617,10.373426544952393,0.13122262791156372,0.18607633574449478,0.23156502435271545,23.299999237060547,2022,0,12.75,24.149999618530273,-74.25,2779096485
0.17512561569213866,1.0607712692260742,10.364356617736815,0.13730906283032243,0.19475655638911102,0.22825373642880234,23.299999237060547,2023,0,10.800000190734863,24.299999237060547,-74.0999984741211,2779096485
0.1948131690979004,1.0766105102539063,10.388530142974853,0.14130431709649474,0.2017560827129393,0.22803417877214233,23.299999237060547,2024,0,10.800000190734863,24.299999237060547,-74.0999984741211,2779096485
0.20707445907592772,1.0785031143188477,10.40877527923584,0.14922784712788423,0.20883017088887468,0.22553705913528763,23.299999237060547,2025,0,10.800000190734863,24.299999237060547,-74.0999984741211,2779096485
0.19928231811523436,1.0813256462097167,10.434752135467528,0.15846112643227647,0.21580975679417802,0.22231135189241608,23.299999237060547,2026,0,10.800000190734863,24.299999237060547,-74.0999984741211,2779096485
0.19007926635742187,1.082231723022461,10.444492358398437,0.16519564825575486,0.2179141067782643,0.2221919623815683,23.399999618530273,2027,0,12.0,25.049999237060547,-75.1500015258789,2779096485
0.16345555419921876,1.0790247337341308,10.437972470855712,0.17287129791248596,0.22117651238070496,0.2241463231340921,23.399999618530273,2028,0,12.0,25.049999237060547,-75.1500015258789,2779096485
0.12736583099365234,1.080796923828125,10.388720315551758,0.18116846278434312,0.21954859525445694,0.22158791750307313,23.399999618530273,2029,0,12.0,25.049999237060547,-75.1500015258789,2779096485
0.10453865432739258,1.0810789489746093,10.33562833404541,0.18455978535636583,0.21537285190454758,0.22059235465751328,23.399999618530273,2030,0,12.0,25.049999237060547,-75.1500015258789,2779096485
0.04769638137817383,1.0789559844970702,10.25613313140869,0.18972017259144075,0.2028567605260022,0.21971046884230225,23.299999237060547,2031,0,11.399999618530273,24.600000381469727,-75.0,2779096485
0.008163177490234375,1.0842765174865723,10.222421668243408,0.19185236592453248,0.19025655320500473,0.21458619407136062,23.299999237060547,2032,0,11.399999618530273,24.600000381469727,-75.0,2779096485
-0.02664113311767578,1.0912915939331054,10.203504711914062,0.19337705226973573,0.17744097604813264,0.21489802360125504,23.399999618530273,2033,0,11.399999618530273,24.600000381469727,-75.0,2779096485
-0.06564654922485351,1.103715242767334,10.176670303344727,0.19472565706277573,0.16190113824659394,0.2134081447712599,23.399999618530273,2034,0,12.75,25.5,-74.4000015258789,2779096485
-0.05153949737548828,1.1888270599365234,9.883465947723389,0.19132104531700486,0.09201999146023682,0.20877346553175385,23.299999237060547,2038,0,12.0,24.899999618530273,-74.0999984741211,2779096485
-0.007590827941894531,1.2174423316955567,9.827755214691162,0.1838663914239125,0.07413590612526612,0.20587417528354737,23.299999237060547,2039,0,12.0,24.899999618530273,-74.0999984741211,2779096485
0.0031082206726074217,1.219023526763916,9.77900718307495,0.1750999709133055,0.05706399170654999,0.20370094929624222,23.299999237060547,2040,0,12.0,24.899999618530273,-74.0999984741211,2779096485
-0.012320842742919922,1.2164390563964844,9.719127868652343,0.16257275417938277,0.042598286660091245,0.20252764708075197,23.299999237060547,2041,0,12.0,24.899999618530273,-74.0999984741211,2779096485
-0.004872933959960937,1.2338427818298339,9.695054719543457,0.149526853537218,0.02960267315686432,0.20343451334681625,23.299999237060547,2042,0,12.300000190734863,25.200000762939453,-74.55000305175781,2779096485
0.015872886657714844,1.2677902877807616,9.707892957305909,0.13769715197750718,0.01892398981237564,0.20233699803752608,23.200000762939453,2043,0,12.300000190734863,25.200000762939453,-74.55000305175781,2779096485
0.025022740936279295,1.2703092239379883,9.725497883605957,0.12746133900344972,0.0067840433036080935,0.2044101224580458,23.200000762939453,2044,0,12.300000190734863,25.200000762939453,-74.55000305175781,2779096485
0.0037440109252929684,1.2498599334716796,9.761173578643799,0.12024079694227463,-0.0016546818950193788,0.20455539789451127,23.200000762939453,2045,0,12.300000190734863,25.200000762939453,-74.55000305175781,2779096485
-0.02386944351196289,1.2221494300842284,9.796791627502442,0.11406786920980728,-0.010182097015239715,0.204697344379637,23.200000762939453,2046,0,11.399999618530273,25.200000762939453,-74.4000015258789,2779096485
-0.05148327178955078,1.1871058990478516,9.861662981414794,0.10946604672002426,-0.01938547567869858,0.20963513129652742,23.200000762939453,2047,0,11.399999618530273,25.200000762939453,-74.4000015258789,2779096485
-0.07170343551635742,1.1498355133056641,9.928582045745848,0.1107937523565535,-0.026525896539029235,0.2138207083686943,23.200000762939453,2048,0,11.399999618530273,25.200000762939453,-74.4000015258789,2779096485
-0.0854975830078125,1.1158234077453613,9.990364095306397,0.1147442588588173,-0.03519109029729797,0.21773088129652604,23.200000762939453,2049,0,11.399999618530273,25.200000762939453,-74.4000015258789,2779096485
-0.08883373413085938,1.1011574645996094,10.043768383026123,0.11773144673819778,-0.042607368039346005,0.22091564909582168,23.200000762939453,2050,0,11.100000381469727,25.350000381469727,-75.0,2779096485
-0.0667039192199707,1.0997267028808593,10.087798736572266,0.12186284179835938,-0.053853417876468815,0.22727899284492112,23.200000762939453,2051,0,11.100000381469727,25.350000381469727,-75.0,2779096485
-0.027975743103027344,1.1091643768310546,10.127692883300782,0.13419720572326935,-0.0638803524697641,0.22826734518187913,23.200000762939453,2052,0,11.100000381469727,25.350000381469727,-75.0,2779096485
0.029120442199707032,1.157165998840332,10.147125402832032,0.14512514762827103,-0.07417900938721284,0.2312525623220665,23.200000762939453,2053,0,11.100000381469727,25.350000381469727,-75.0,2779096485
0.15223929748535156,1.2955091278076172,10.142816332244873,0.16512870304431304,-0.09318730156331559,0.23758456732325378,23.200000762939453,2054,0,11.550000190734863,25.350000381469727,-74.4000015258789,2779096485
0.24726898651123047,1.4349046920776367,10.108614839172363,0.1795199128176915,-0.10655620369607087,0.2377665144876776,23.399999618530273,2055,0,11.550000190734863,25.350000381469727,-74.4000015258789,2779096485
0.3446581687927246,1.5881003105163574,10.05043152618408,0.19186378422762773,-0.11827405249076706,0.2393045299540451,23.399999618530273,2056,0,11.550000190734863,25.350000381469727,-74.4000015258789,2779096485
0.4238800941467285,1.7330817222595214,9.973050727081299,0.20472199193535628,-0.12855746946898255,0.24174069649186952,23.399999618530273,2057,0,12.300000190734863,24.899999618530273,-75.1500015258789,2779096485
0.4775953048706055,1.8712584175109863,9.873680490112305,0.21047834801297624,-0.134146658926127,0.2421005295000827,23.399999618530273,2058,0,12.300000190734863,24.899999618530273,-75.1500015258789,2779096485
0.5113047492980957,1.9992548049926757,9.768174598693847,0.21449806341359284,-0.13773246549331894,0.2430041200780287,23.299999237060547,2059,0,12.300000190734863,24.899999618530273,-75.1500015258789,2779096485
0.49709096603393554,2.0718448028564453,9.651191958618163,0.21545094910297746,-0.13487910145779525,0.24081768481180757,23.299999237060547,2060,0,12.300000190734863,24.899999618530273,-75.1500015258789,2779096485
0.46191303939819334,2.1134725967407224,9.546231575012207,0.20895507314314102,-0.1264227195012619,0.23691562786734208,23.299999237060547,2061,0,12.0,25.049999237060547,-75.30000305175781,2779096485
0.41591336975097654,2.1183605590820314,9.480237541198731,0.19973498314395677,-0.10970307471331513,0.2334472400718048,23.200000762939453,2062,0,12.0,25.049999237060547,-75.30000305175781,2779096485
0.3569250663757324,2.1263851165771483,9.416932690429688,0.18599170714353638,-0.08791112674274246,0.2298891503534674,23.200000762939453,2063,0,12.0,25.049999237060547,-75.30000305175781,2779096485
0.3284400779724121,2.1374438369750974,9.386195725250245,0.16470683835683547,-0.05527939415654663,0.2264998118364432,23.299999237060547,2064,0,12.0,25.049999237060547,-75.30000305175781,2779096485
0.2973019073486328,2.1520059646606446,9.342026377868653,0.13703332579085328,-0.016721102868633576,0.22456058449670974,23.299999237060547,2065,0,11.25,25.5,-75.0,2779096485
0.2216448860168457,2.1481188102722166,9.301784036254883,0.10217826649968949,0.025131638507316284,0.2237198445200577,23.299999237060547,2066,0,11.25,25.5,-75.0,2779096485
0.14219237594604492,2.1371762420654297,9.293272551727295,0.061727679428030396,0.07013463311507157,0.22478895055861467,23.299999237060547,2067,0,11.25,25.5,-75.0,2779096485
0.03389853286743164,2.102402586364746,9.31900917816162,0.014387767637693177,0.11256052670108399,0.2296034264599791,23.299999237060547,2068,0,11.25,25.5,-75.0,2779096485
-0.11423936233520507,2.032082322692871,9.408545694732666,-0.03373575266640381,0.1537631172224835,0.23840894883302247,23.299999237060547,2069,0,11.699999809265137,26.100000381469727,-73.80000305175781,2779096485
-0.26154138793945314,1.924660723876953,9.55009334564209,-0.0821174664364096,0.19181914299016206,0.24749756522799576,23.299999237060547,2070,0,11.699999809265137,26.100000381469727,-73.80000305175781,2779096485
-0.3972149230957031,1.7671695304870605,9.755047830963134,-0.12631427558241912,0.22540528592545608,0.26111314265502444,23.200000762939453,2071,0,11.699999809265137,26.100000381469727,-73.80000305175781,2779096485
-0.4848148719787598,1.587831519317627,10.012009637451172,-0.16549158537195344,0.25092691774012343,0.2710291765633882,23.200000762939453,2072,0,11.699999809265137,26.100000381469727,-73.80000305175781,2779096485
-0.5228389945983887,1.396369155883789,10.289256543731689,-0.1932617906585492,0.2705819252929939,0.2839101210087671,23.200000762939453,2073,0,12.149999618530273,25.950000762939453,-74.69999694824219,2779096485
-0.5640223670959472,1.1968350189208985,10.566594480133057,-0.2096037126537831,0.2828402559693047,0.28944873037925584,23.299999237060547,2074,0,12.149999618530273,25.950000762939453,-74.69999694824219,2779096485
-0.5937412155151367,1.0050257316589355,10.782002326202392,-0.21860380557473053,0.28608375978603834,0.29218499522245345,23.299999237060547,2075,0,12.149999618530273,25.950000762939453,-74.69999694824219,2779096485
-0.6207112533569336,0.8342305328369141,10.941936154937745,-0.21938529021753556,0.28464768346759584,0.292192751679075,23.299999237060547,2076,0,12.149999618530273,25.950000762939453,-74.69999694824219,2779096485
-0.6212894721984863,0.6722419281005859,11.054738736724854,-0.21116723454531555,0.27042788139869967,0.2912155380132997,23.200000762939453,2077,0,11.850000381469727,25.950000762939453,-74.25,2779096485
-0.6161103256225585,0.5979043762207031,11.078313855743408,-0.19976938452710144,0.25281826144378633,0.2867104814810597,23.200000762939453,2078,0,11.850000381469727,25.950000762939453,-74.25,2779096485
-0.6083172500610351,0.5459036720275878,11.09135037841797,-0.18905392292821152,0.22896556609377502,0.28666645277064057,23.200000762939453,2079,0,11.850000381469727,25.950000762939453,-74.25,2779096485
-0.6170902359008789,0.5201557556152343,11.074814747619628,-0.1738670005740021,0.19853365781608873,0.28246489007414033,23.200000762939453,2080,0,12.149999618530273,25.200000762939453,-75.0,2779096485
-0.6354197395324707,0.5270093330383301,11.043762747192382,-0.16007289148662415,0.16633428942989595,0.28162456288745435,23.200000762939453,2081,0,12.149999618530273,25.200000762939453,-75.0,2779096485
-0.6558218887329101,0.5590295051574706,10.975308657073974,-0.1477376487185605,0.1274853474005118,0.27854953064012133,23.200000762939453,2082,0,12.149999618530273,25.200000762939453,-75.0,2779096485
-0.665370817565918,0.6147046859741211,10.862573067474365,-0.13766524730786728,0.09240454526109879,0.2724826632973375,23.200000762939453,2083,0,12.149999618530273,25.200000762939453,-75.0,2779096485
-0.6638105949401856,0.6570390007019042,10.746734042358398,-0.13363117081117112,0.055483984847983246,0.26607900594751405,23.200000762939453,2084,0,11.550000190734863,26.100000381469727,-74.69999694824219,2779096485
-0.6602629249572753,0.6758269821166992,10.626825204467773,-0.13134125842150604,0.018447756691617738,0.25678434078041734,23.200000762939453,2085,0,11.550000190734863,26.100000381469727,-74.69999694824219,2779096485
