adisAccelX,adisAccelY,adisAccelZ,adisGyroX,adisGyroY,adisGyroZ,adisTemp,adisDataCNT,lsmMagX,lsmMagY,lsmMagZ,mpuAccelX,mpuAccelY,mpuAccelZ,mpuGyroX,mpuGyroY,mpuGyroZ,mpuTemp,year,month,day,hour,min,sec,fixType,fLon,fLat,height,hMSL,hAcc,vAcc,gSpeed,headMot,padding
-0.343718147277832,1.1687060760498047,9.753951058197021,-0.0023006316129789736,0.007781190730005646,-0.002316916842932892,27.899999618530273,39147,,,,-0.32060545682907104,1.256103515625,10.034472465515137,-0.03621900454163551,0.005326324608176947,-0.010386332869529724,35.918235778808594,,,,,,,,,,,,,,,,2779096485
-0.35197044830322266,1.1740380111694335,9.753112870788573,-0.001425423674155426,0.006879963707510834,-0.0029507025726971435,27.899999618530273,39148,,,,-0.3660644590854645,1.3015625476837158,10.099072456359863,-0.0391484834253788,0.002929478418081999,-0.012516862712800503,35.918235778808594,,,,,,,,,,,,,,,,2779096485
-0.34359537811279295,1.1716716018676758,9.751086544036864,-0.0015165304144209289,0.008142175555382386,-0.0021397900000489807,27.899999618530273,39149,-9.449999809265137,5.699999809265137,-73.05000305175781,-0.3397460877895355,1.275244116783142,10.091894149780273,-0.036751639097929,0.006924221757799387,-0.013848443515598774,35.918235778808594,,,,,,,,,,,,,,,,2779096485
-0.3422261878967285,1.1727837020874023,9.754452303314208,-0.0020528843963742065,0.005845858263339691,-0.004305059793652191,27.899999618530273,39150,,,,-0.3660644590854645,1.248925805091858,10.146924018859863,-0.037017956376075745,0.006924221757799387,-0.010386332869529724,35.918235778808594,,,,,,,,,,,,,,,,2779096485
-0.3447558532714844,1.1734278289794922,9.755711771392821,-0.0016263724928263854,0.007200701511190338,-0.0021383585509729005,27.80000114440918,39151,,,,-0.36127930879592896,1.2919921875,10.056005477905273,-0.03968111798167229,0.004261059686541557,-0.010120016522705555,36.012351989746094,,,,,,,,,,,,,,,,2779096485
-0.3444194343566894,1.1697501373291015,9.760286679840087,-0.0030787606728335574,0.006984213147665558,-0.002039275643297424,27.80000114440918,39152,,,,-0.3301757872104645,1.335058569908142,10.122998237609863,-0.03648532181978226,0.005858956836163998,-0.009054751135408878,35.918235778808594,,,,,,,,,,,,,,,,2779096485
-0.3452984451293945,1.1701296600341797,9.755341519927978,-0.0029207753001530457,0.006754096057355957,-0.0014892995924620056,27.899999618530273,39153,-8.850000381469727,4.949999809265137,-72.9000015258789,-0.394775390625,1.260888695716858,10.056005477905273,-0.035686373710632324,0.0050600082613527775,-0.014381076209247112,35.918235778808594,,,,,,,,,,,,,,,,2779096485
-0.34460261611938475,1.1666988151550293,9.75893775177002,-0.0013231915785125732,0.006162315035596314,-0.0026677616825288393,28.0,39154,,,,-0.33735352754592896,1.213037133216858,9.950732231140137,-0.035686373710632324,0.006657905410975218,-0.013848443515598774,35.918235778808594,,,,,,,,,,,,,,,,2779096485
-0.34526891174316404,1.1658473190307617,9.759142279815674,-0.002024208809533844,0.0069854049122451784,-0.0006759302537251282,28.0,39155,,,,-0.346923828125,1.287207007408142,10.158886909484863,-0.035686373710632324,0.007723170332610607,-0.007989486679434776,36.012351989746094,,,,,,,,,,,,,,,,2779096485
-0.35238772888183595,1.1712227317810058,9.754173867034911,-0.001772793088552704,0.0073957181385739135,-0.003124227490231476,28.0,39156,,,,-0.32060545682907104,1.2776367664337158,10.201952934265137,-0.03648532181978226,0.0055926404893398285,-0.009321067482233047,35.918235778808594,,,,,,,,,,,,,,,,2779096485
-0.3506058937072754,1.1717037147521971,9.754740459442138,-0.00048008804640930174,0.007472017703280334,-0.0016814067163746643,27.899999618530273,39157,-9.449999809265137,4.800000190734863,-73.3499984741211,-0.322998046875,1.2895996570587158,10.094286918640137,-0.03542005643248558,0.0026631623040884733,-0.008788435719907284,35.918235778808594,,,,,,,,,,,,,,,,2779096485
-0.3459047393798828,1.1706570739746094,9.752636186981201,-0.0018534402637088014,0.008751793098420257,-0.0039428299404743955,28.100000381469727,39165,-7.5,5.25,-72.44999694824219,-0.370849609375,1.251318335533142,10.077539443969727,-0.03621900454163551,0.006924221757799387,-0.010120016522705555,35.918235778808594,,,,,,,,,,,,,,,,2779096485
-0.34454612884521485,1.171294359588623,9.752072024536133,-0.0012395217155400085,0.007334252381037292,-0.0019477028498443604,28.100000381469727,39166,-8.550000190734863,5.400000095367432,-72.5999984741211,-0.3182128965854645,1.251318335533142,10.132568359375,-0.034354791045188904,0.0026631623040884733,-0.013582127168774605,35.918235778808594,,,,,,,,,,,,,,,,2779096485
-0.3423909393310547,1.1743004470825196,9.752738469696045,-0.0012393552679730224,0.0071617261489048765,-0.0011320698241964722,28.100000381469727,39167,,,,-0.35649412870407104,1.2537109851837158,10.056005477905273,-0.03488742560148239,0.0050600082613527775,-0.009587383829057217,35.82411575317383,,,,,,,,,,,,,,,,2779096485
-0.34491107177734376,1.1710237739562988,9.751447374725341,-0.0005387108795018006,0.006261857338556671,-0.001584134758227997,28.100000381469727,39168,-8.550000190734863,5.400000095367432,-72.9000015258789,-0.346923828125,1.244140625,10.12060546875,-0.03408847749233246,0.0034621108788996935,-0.009853700175881386,35.918235778808594,,,,,,,,,,,,,,,,2779096485
-0.34648935089111327,1.177242308807373,9.753193769836425,-0.0016339824755889892,0.007432689472152863,-0.0020413196194200133,28.0,39169,,,,-0.2942871153354645,1.236962914466858,10.108642578125,-0.03488742560148239,0.005858956836163998,-0.008522119373083115,35.918235778808594,,,,,,,,,,,,,,,,2779096485
-0.3422884323120117,1.1752375526428223,9.748810641479492,-0.0024448750745291138,0.005938589531858978,-0.002669878895580902,27.80000114440918,39170,,,,-0.2703613340854645,1.275244116783142,10.103857040405273,-0.03648532181978226,0.006657905410975218,-0.009321067482233047,35.918235778808594,,,,,,,,,,,,,,,,2779096485
-0.3417935424804687,1.1743944305419922,9.753466710662842,-0.0013938652154548644,0.008191770272441558,-0.003586132804423218,27.80000114440918,39171,,,,-0.3517089784145355,1.263281226158142,10.103857040405273,-0.03621900454163551,0.002396845957264304,-0.012783179059624672,35.918235778808594,,,,,,,,,,,,,,,,2779096485
-0.34255946655273434,1.1759047454833984,9.75664962463379,-0.0024050475007006836,0.006182009111722107,-0.0034822695226239013,27.899999618530273,39172,-8.550000190734863,5.400000095367432,-72.9000015258789,-0.36127930879592896,1.2465331554412842,10.056005477905273,-0.033822160214185715,0.004527375567704439,-0.007989486679434776,36.012351989746094,,,,,,,,,,,,,,,,2779096485
-0.34385949630737306,1.1708718452453613,9.751182471466064,-0.0028353410929704286,0.007210568522961273,-0.0004950416958273315,27.899999618530273,39173,,,,-0.3062500059604645,1.280029296875,10.075146675109863,-0.03595269098877907,0.003994743339717388,-0.011185280978679657,35.918235778808594,,,,,,,,,,,,,,,,2779096485
-0.3455476844787598,1.1687636100769043,9.754323552703857,-0.002398176545135498,0.007022536035488434,-0.001582603440611725,27.899999618530273,39174,,,,-0.3541015684604645,1.2417480945587158,10.022509574890137,-0.03355584293603897,0.006125273182988167,-0.012516862712800503,35.918235778808594,,,,,,,,,,,,,,,,2779096485
-0.3457098564147949,1.1681973167419433,9.751170957183838,-0.00030741534041793826,0.008016307905227508,-0.0009594503814265443,27.899999618530273,39175,,,,-0.3636718690395355,1.2297852039337158,10.082324028015137,-0.036751639097929,0.007723170332610607,-0.007989486679434776,36.012351989746094,,,,,,,,,,,,,,,,2779096485
-0.3495069900512695,1.1678668045043945,9.75334764251709,-0.002401751838874359,0.008278762428851167,-0.0014964435220370484,27.899999618530273,39176,-7.949999809265137,4.650000095367432,-73.05000305175781,-0.3517089784145355,1.260888695716858,10.127782821655273,-0.03542005643248558,0.004793691914528608,-0.010652649216353893,35.918235778808594,,,,,,,,,,,,,,,,2779096485
-0.3478843734741211,1.1706144187927245,9.759071324920654,-0.002686636836625061,0.007694384994871063,-0.0017673668978689576,27.899999618530273,39177,,,,-0.3899902403354645,1.2919921875,10.079931259155273,-0.035686373710632324,0.006657905410975218,-0.010652649216353893,35.918235778808594,,,,,,,,,,,,,,,,2779096485
-0.3432140983581543,1.1711897590637206,9.755674462127685,-0.0018076072616635133,0.007078528997022553,-0.001496123942708435,28.0,39178,,,,-0.322998046875,1.213037133216858,10.103857040405273,-0.03648532181978226,0.0034621108788996935,-0.007190538104623556,35.918235778808594,,,,,,,,,,,,,,,,2779096485
-0.3420750816345215,1.1714115585327147,9.75186461791992,-0.0017864684206562805,0.006833158651674347,-0.0028518793232261658,28.0,39179,,,,-0.3875976502895355,1.2465331554412842,10.084716796875,-0.03968111798167229,0.0037284272257238626,-0.011717913672327995,35.918235778808594,,,,,,,,,,,,,,,,2779096485
-0.3450127563476562,1.1715795249938965,9.758380168914794,-0.00039248336295318606,0.007380151962109375,-0.0019530624615013122,28.0,39180,-9.149999618530273,5.099999904632568,-72.75,-0.34931641817092896,1.280029296875,10.115819931030273,-0.03648532181978226,0.005858956836163998,-0.013049494475126266,35.918235778808594,,,,,,,,,,,,,,,,2779096485
-0.3435483116149902,1.1728777976989746,9.752414574432374,-0.0021452228486354063,0.007066138640136109,-0.005025771100799255,28.0,39181,,,,-0.4234863221645355,1.275244116783142,10.056005477905273,-0.03728426992893219,0.004527375567704439,-0.009587383829057217,35.918235778808594,,,,,,,,,,,,,,,,2779096485
-0.3399604164123535,1.1738454086303711,9.752872005462645,-0.0022077338968927002,0.007691262438514404,-0.003403166980889435,27.899999618530273,39182,,,,-0.3828125,1.3422362804412842,10.063183784484863,-0.034354791045188904,0.007456854451447725,-0.007723170332610607,35.918235778808594,,,,,,,,,,,,,,,,2779096485
-0.34102081451416016,1.1710384658813475,9.7550577003479,-0.0023008912711834717,0.007702134793589935,-0.0010488194090927125,27.80000114440918,39183,,,,-0.3397460877895355,1.3015625476837158,10.118212699890137,-0.03781690448522568,0.0026631623040884733,-0.010652649216353893,35.918235778808594,,,,,,,,,,,,,,,,2779096485
-0.3507103446960449,1.1704013671875,9.754989250183105,-0.0024742497411508178,0.007425345805497437,-0.0019528294349075318,27.80000114440918,39184,-9.0,5.550000190734863,-73.05000305175781,-0.34931641817092896,1.2584960460662842,10.12060546875,-0.035686373710632324,0.003195794764906168,-0.008522119373083115,35.918235778808594,,,,,,,,,,,,,,,,2779096485
-0.34628029937744137,1.17439697265625,9.756776281738281,-0.0013913418703393554,0.007212319551365967,-0.002767676828039246,28.0,39185,,,,-0.30146485567092896,1.260888695716858,10.156494140625,-0.0391484834253788,0.005326324608176947,-0.013582127168774605,35.918235778808594,,,,,,,,,,,,,,,,2779096485
-0.34538663406372067,1.1715943290710449,9.755505374145507,-0.0012010124064421083,0.006714687931396332,-0.0011351857226504518,28.0,39186,,,,-0.3756347596645355,1.251318335533142,10.048828125,-0.03968111798167229,0.008788435719907284,-0.007989486679434776,36.012351989746094,,,,,,,,,,,,,,,,2779096485
-0.34519365768432614,1.1671491806030274,9.754646027374267,-0.0014631406928344727,0.006807139568003082,-0.0007723633161341858,28.0,39187,,,,-0.30864256620407104,1.280029296875,9.957910537719727,-0.03648532181978226,0.004261059686541557,-0.013049494475126266,35.918235778808594,,,,,,,,,,,,,,,,2779096485
-0.34675257186889646,1.1722505310058593,9.75314199295044,-0.0011410047295922852,0.007392442450455628,-0.0005966945539370728,27.899999618530273,39188,-8.100000381469727,5.699999809265137,-72.9000015258789,-0.38520509004592896,1.256103515625,10.067968368530273,-0.035686373710632324,0.002929478418081999,-0.011451597325503826,35.918235778808594,,,,,,,,,,,,,,,,2779096485
-0.34430481491088866,1.1733992301940919,9.754040368652344,-0.0009924602629112244,0.007961053970890808,-0.002412650825560608,27.80000114440918,39189,,,,-0.346923828125,1.2776367664337158,10.118212699890137,-0.03648532181978226,0.004793691914528608,-0.008522119373083115,35.918235778808594,,,,,,,,,,,,,,,,2779096485
-0.3403299201965332,1.1728153663635255,9.751828018951416,-0.0010773352062687684,0.00698286825132431,-0.001412780316967163,27.80000114440918,39190,,,,-0.2560058534145355,1.2824218273162842,10.149316787719727,-0.036751639097929,0.004793691914528608,-0.011451597325503826,36.012351989746094,,,,,,,,,,,,,,,,2779096485
-0.34320262145996094,1.1729153312683105,9.760455094909668,-0.0016140021096479797,0.008212403112845153,-0.0023217171907647704,27.80000114440918,39191,,,,-0.3780273497104645,1.248925805091858,9.965087890625,-0.03595269098877907,0.005858956836163998,-0.007456854451447725,36.012351989746094,,,,,,,,,,,,,,,,2779096485
-0.34652965087890625,1.1709854553222656,9.750650309753418,-0.0028507940850894167,0.008275646530397186,-0.0021378791819799806,27.80000114440918,39192,-7.949999809265137,4.949999809265137,-73.19999694824219,-0.31342774629592896,1.287207007408142,10.134961128234863,-0.03542005643248558,0.003195794764906168,-0.010386332869529724,36.012351989746094,,,,,,,,,,,,,,,,2779096485
-0.34857209014892576,1.1732139549255372,9.751263220977783,-0.0023270168812976073,0.008100590295246582,-0.0016862936169413758,27.80000114440918,39193,,,,-0.2918945252895355,1.275244116783142,10.089502334594727,-0.03728426992893219,0.004793691914528608,-0.009054751135408878,35.918235778808594,,,,,,,,,,,,,,,,2779096485
-0.34631072998046875,1.171711415863037,9.750793976593018,-0.0017646304998677064,0.006729761423062592,-0.0014991333147195435,28.0,39194,,,,-0.346923828125,1.280029296875,10.146924018859863,-0.03781690448522568,0.007989486679434776,-0.007190538104623556,35.918235778808594,,,,,,,,,,,,,,,,2779096485
-0.34548813171386716,1.1708119560241699,9.753843093109131,-0.0020145881401620485,0.007919475368657685,-0.0017727531411366273,28.0,39195,-8.850000381469727,5.849999904632568,-72.1500015258789,-0.322998046875,1.308740258216858,10.022509574890137,-0.03781690448522568,0.003195794764906168,-0.008255803026258945,36.012351989746094,,,,,,,,,,,,,,,,2779096485
-0.34437169494628905,1.1683293197631837,9.756796543884278,-0.0003544134754321289,0.007192292580106201,-0.00313434750230423,28.0,39196,,,,-0.370849609375,1.2584960460662842,10.0009765625,-0.03621900454163551,0.008255803026258945,-0.007723170332610607,35.918235778808594,,,,,,,,,,,,,,,,2779096485
-0.3490998031616211,1.1774512481689452,9.750273740386962,-0.00273772292388443,0.008133839861227721,-0.002950529467227478,27.899999618530273,39197,,,,-0.40673828125,1.232177734375,10.127782821655273,-0.035153742879629135,0.0037284272257238626,-0.013049494475126266,35.918235778808594,,,,,,,,,,,,,,,,2779096485
-0.34544547653198243,1.1719334396362304,9.74875168685913,-0.0014475212531484985,0.005590481090264283,-0.0016805345311236572,27.80000114440918,39198,,,,-0.299072265625,1.2345702648162842,10.029687881469727,-0.03542005643248558,0.005326324608176947,-0.008255803026258945,35.82411575317383,,,,,,,,,,,,,,,,2779096485
-0.3461573806762695,1.170970987701416,9.754125679016113,-0.001624561543297577,0.006572208814056244,-0.002226715577431793,27.80000114440918,39199,-8.399999618530273,4.5,-73.05000305175781,-0.3541015684604645,1.201074242591858,10.091894149780273,-0.03834953531622887,0.003195794764906168,-0.009587383829057217,36.012351989746094,,,,,,,,,,,,,,,,2779096485
-0.3453242774963379,1.1741272468566895,9.756549435424805,-0.0021497835119708253,0.007199436509681244,-0.0022270950778845214,27.80000114440918,39200,,,,-0.36845701932907104,1.256103515625,10.082324028015137,-0.037017956376075745,0.0050600082613527775,-0.013582127168774605,35.918235778808594,,,,,,,,,,,,,,,,2779096485
-0.34741281127929685,1.1713660995483397,9.747475582885741,0.00011541474294815064,0.008279268429454804,-0.0020576447967900085,27.80000114440918,39201,,,,-0.3517089784145355,1.275244116783142,9.991406440734863,-0.037017956376075745,0.004793691914528608,-0.010918965563178062,35.918235778808594,,,,,,,,,,,,,,,,2779096485
-0.3420622215270996,1.1723153923034668,9.749428823852538,-0.00136616834030838,0.007570281688926239,-0.0008727445148321533,27.80000114440918,39202,,,,-0.3301757872104645,1.299169898033142,10.0966796875,-0.03621900454163551,0.0034621108788996935,-0.009853700175881386,35.918235778808594,,,,,,,,,,,,,,,,2779096485
-0.3473614456176758,1.172073218536377,9.753599349212646,-0.0002221875282183838,0.005960813611002961,-0.0015045262158898925,27.899999618530273,39203,-7.800000190734863,5.550000190734863,-72.5999984741211,-0.3828125,1.2656738758087158,10.082324028015137,-0.03542005643248558,0.006924221757799387,-0.009853700175881386,35.82411575317383,,,,,,,,,,,,,,,,2779096485
-0.342545036315918,1.1746663246154785,9.755737229919433,-0.0015994679080987549,0.006363723249552155,-0.0003220893579234314,27.899999618530273,39204,,,,-0.34931641817092896,1.2417480945587158,10.132568359375,-0.037017956376075745,0.006924221757799387,-0.011185280978679657,35.82411575317383,,,,,,,,,,,,,,,,2779096485
-0.3468753036499023,1.1737516120910645,9.751790821838378,-0.0025608623971076967,0.0074967451538317876,-0.004126175264460907,27.899999618530273,39205,,,,-0.36845701932907104,1.296777367591858,10.058398246765137,-0.03781690448522568,0.0050600082613527775,-0.011717913672327995,35.918235778808594,,,,,,,,,,,,,,,,2779096485
-0.3491479911804199,1.1714149230957032,9.751425916290282,0.0006663695054774475,0.007515034412492218,-0.0023262911699055483,27.899999618530273,39206,,,,-0.3062500059604645,1.22021484375,10.032079696655273,-0.03781690448522568,0.003195794764906168,-0.007456854451447725,35.918235778808594,,,,,,,,,,,,,,,,2779096485
-0.35073195266723634,1.1721027519226075,9.756996548461913,-0.0008356200494915772,0.005312939759169006,-0.0027683825657232666,27.80000114440918,39207,-8.100000381469727,5.400000095367432,-73.05000305175781,-0.322998046875,1.272851586341858,10.075146675109863,-0.034354791045188904,0.005858956836163998,-0.010918965563178062,36.012351989746094,,,,,,,,,,,,,,,,2779096485
-0.34276552734375,1.1726272499084471,9.7561773147583,-0.0013670604992674256,0.00792671250887024,-0.0011456652614678954,27.80000114440918,39208,,,,-0.3397460877895355,1.2919921875,10.065576553344727,-0.03728426992893219,0.003195794764906168,-0.009587383829057217,36.012351989746094,,,,,,,,,,,,,,,,2779096485
-0.3428270614624023,1.173210440826416,9.755081588745117,-0.0005807222454090881,0.007565734341396179,-0.0015093665111378478,27.80000114440918,39209,,,,-0.35888671875,1.3063476085662842,10.044042587280273,-0.03542005643248558,0.004261059686541557,-0.010652649216353893,35.918235778808594,,,,,,,,,,,,,,,,2779096485
-0.3436449119567871,1.1737701919555663,9.751780242156983,-0.0008922055643641663,0.006730606976702881,-0.0015021693183413696,28.0,39210,,,,-0.3397460877895355,1.260888695716858,10.048828125,-0.03222426399588585,0.007190538104623556,-0.008255803026258945,36.012351989746094,,,,,,,,,,,,,,,,2779096485
-0.34163843612670897,1.1736857788085937,9.754853546142577,-0.0012833040835600281,0.006805128881393891,-0.002040320934018097,28.0,39211,-8.850000381469727,5.550000190734863,-72.5999984741211,-0.3828125,1.244140625,10.139745712280273,-0.03621900454163551,0.0018642136128619313,-0.012783179059624672,36.012351989746094,,,,,,,,,,,,,,,,2779096485
-0.3425977478027344,1.1717012474060058,9.74824270324707,-0.0014387394795143127,0.007112384432147522,-0.0016768127635258484,28.0,39212,,,,-0.35649412870407104,1.232177734375,10.070361137390137,-0.033822160214185715,0.006924221757799387,-0.009853700175881386,35.918235778808594,,,,,,,,,,,,,,,,2779096485
-0.34270391845703124,1.1723247756958008,9.752884491729736,-0.00031154989798187256,0.0060213672358724974,-0.0014966965223388673,28.0,39213,,,,-0.38041990995407104,1.3183104991912842,10.223485946655273,-0.03648532181978226,0.006391589529812336,-0.006125273182988167,35.918235778808594,,,,,,,,,,,,,,,,2779096485
-0.34114575195312496,1.1744971618652342,9.757443549346924,-0.0020758008973968504,0.007691941544587707,-0.002131713964098816,28.0,39214,,,,-0.3397460877895355,1.3015625476837158,10.044042587280273,-0.03542005643248558,0.0055926404893398285,-0.010120016522705555,35.918235778808594,,,,,,,,,,,,,,,,2779096485
-0.34478052673339843,1.1746188095092773,9.752729161071777,-0.0012047741214559937,0.00789034038653244,3.795670317550659e-05,28.0,39215,-9.0,5.25,-72.9000015258789,-0.38041990995407104,1.287207007408142,10.130175590515137,-0.037017956376075745,0.005326324608176947,-0.007723170332610607,36.012351989746094,,,,,,,,,,,,,,,,2779096485
-0.34490400619506834,1.170705411529541,9.756509023284911,-0.0010291519645776368,0.007782635494887085,-0.002135675416193085,28.0,39216,,,,-0.25361329317092896,1.2704589366912842,10.197168350219727,-0.03542005643248558,0.003195794764906168,-0.006391589529812336,35.82411575317383,,,,,,,,,,,,,,,,2779096485
-0.3425754295349121,1.1689552780151367,9.750015117645264,-0.0021621672109545897,0.0075049210583221435,-0.0030363431748628234,28.0,39217,,,,-0.346923828125,1.260888695716858,10.020116806030273,-0.03834953531622887,0.005858956836163998,-0.008522119373083115,36.012351989746094,,,,,,,,,,,,,,,,2779096485
-0.3422861518859863,1.1735831970214843,9.750458380126952,-0.0017261145328671265,0.0074240075670588684,-0.002041432803765564,28.0,39218,,,,-0.38041990995407104,1.2226073741912842,10.048828125,-0.036751639097929,0.0034621108788996935,-0.011717913672327995,35.918235778808594,,,,,,,,,,,,,,,,2779096485
-0.34234162979125976,1.172077480316162,9.753925823974608,-0.0032930452705714416,0.00616929251760437,-0.0017599033889653015,28.0,39219,-9.0,5.099999904632568,-72.30000305175781,-0.39716798067092896,1.239355444908142,10.149316787719727,-0.037017956376075745,0.0050600082613527775,-0.007723170332610607,35.918235778808594,,,,,,,,,,,,,,,,2779096485
-0.3426721794128418,1.173423380279541,9.75277600326538,-0.0025131252348960876,0.00813686254904419,-0.0024939904225953673,28.0,39220,,,,-0.3660644590854645,1.3063476085662842,10.12060546875,-0.040746383368968964,0.004527375567704439,-0.010386332869529724,35.918235778808594,,,,,,,,,,,,,,,,2779096485
-0.34358704147338864,1.1744480018615722,9.748984963226318,-0.00217460417315979,0.006156516002362518,-0.0002256096901956177,28.0,39221,,,,-0.3517089784145355,1.2656738758087158,9.957910537719727,-0.035686373710632324,0.005858956836163998,-0.011984230019152164,35.918235778808594,,,,,,,,,,,,,,,,2779096485
-0.34160961303710935,1.1719412155151367,9.757851371765137,-0.0022737536598620607,0.007021697139750824,-0.0018592592706506348,28.0,39222,,,,-0.3541015684604645,1.263281226158142,10.07275390625,-0.03648532181978226,0.006657905410975218,-0.008788435719907284,36.012351989746094,,,,,,,,,,,,,,,,2779096485
-0.3438415519714355,1.168892547607422,9.753719688415528,-0.0026688735522763063,0.0073902453425714115,-0.0018632806438690186,27.899999618530273,39223,-8.550000190734863,4.949999809265137,-72.44999694824219,-0.3158203065395355,1.275244116783142,10.137353897094727,-0.03595269098877907,0.006125273182988167,-0.009587383829057217,35.918235778808594,,,,,,,,,,,,,,,,2779096485
-0.34600309677124025,1.1712414985656738,9.754958894348144,-0.002410500322995148,0.006924844629472962,-0.0028591297792440796,27.80000114440918,39224,,,,-0.3636718690395355,1.225000023841858,9.984228134155273,-0.03808322176337242,0.002396845957264304,-0.013049494475126266,35.918235778808594,,,,,,,,,,,,,,,,2779096485
-0.34393164749145505,1.1688307891845702,9.754166502380372,-0.002064708831532898,0.007919968053455963,-0.0018676881754428102,27.80000114440918,39225,,,,-0.3899902403354645,1.2704589366912842,10.053613662719727,-0.037017956376075745,0.006391589529812336,-0.006391589529812336,35.918235778808594,,,,,,,,,,,,,,,,2779096485
-0.3444396217346191,1.1707857124328613,9.752629607391357,-0.0005596499834286499,0.007412216421413574,-0.002684353176006012,27.899999618530273,39226,,,,-0.38041990995407104,1.1962890625,10.149316787719727,-0.03781690448522568,0.0037284272257238626,-0.012783179059624672,36.012351989746094,,,,,,,,,,,,,,,,2779096485
-0.3451383666992187,1.1702435691833495,9.751468085479736,-0.0010822354226408385,0.008773364703101654,-0.0017812819144689942,27.899999618530273,39227,-8.399999618530273,4.949999809265137,-73.19999694824219,-0.3756347596645355,1.26806640625,10.204345703125,-0.038882169872522354,0.0050600082613527775,-0.010386332869529724,36.012351989746094,,,,,,,,,,,,,,,,2779096485
-0.3494199600219726,1.1737949401855468,9.758690942382811,-0.0014297313371890259,0.008151356803177337,-0.0010534266777468871,27.899999618530273,39228,,,,-0.32539063692092896,1.2895996570587158,10.044042587280273,-0.037017956376075745,0.0055926404893398285,-0.011717913672327995,36.012351989746094,,,,,,,,,,,,,,,,2779096485
-0.34378170013427733,1.1699338424682617,9.752060697174072,-0.0015309447737219238,0.007933017542707673,-0.002502592432857208,27.899999618530273,39229,,,,-0.34931641817092896,1.2584960460662842,10.0966796875,-0.03728426992893219,0.006125273182988167,-0.006125273182988167,35.918235778808594,,,,,,,,,,,,,,,,2779096485
-0.347294490814209,1.172859853363037,9.755120505523681,-5.592638250732422e-05,0.0072007081690930175,-0.0023249329577589416,27.80000114440918,39230,,,,-0.4258789122104645,1.296777367591858,10.175634384155273,-0.03808322176337242,0.004793691914528608,-0.011717913672327995,35.918235778808594,,,,,,,,,,,,,,,,2779096485
-0.34511451568603513,1.173088793182373,9.7565982963562,-0.00161244416042099,0.007250981992225495,0.000670071299367218,27.80000114440918,39231,-8.399999618530273,5.550000190734863,-72.44999694824219,-0.38041990995407104,1.2895996570587158,10.075146675109863,-0.036751639097929,0.004527375567704439,-0.013315810821950436,36.012351989746094,,,,,,,,,,,,,,,,2779096485
-0.34655731506347653,1.1687505256652833,9.752379956817627,-0.00036386769723693846,0.006997861848158417,-0.002862878178452606,27.899999618530273,39232,,,,-0.3277831971645355,1.2824218273162842,10.015332221984863,-0.03621900454163551,0.0018642136128619313,-0.011185280978679657,35.918235778808594,,,,,,,,,,,,,,,,2779096485
-0.3444754356384277,1.171920280456543,9.757109523010254,-0.00041669815499832154,0.006986756466489105,-0.0008671918239974975,28.0,39233,,,,-0.3660644590854645,1.2465331554412842,10.099072456359863,-0.03781690448522568,0.006125273182988167,-0.008788435719907284,35.918235778808594,,,,,,,,,,,,,,,,2779096485
-0.34575696029663083,1.168974269104004,9.755876709747314,-0.0018157964819592285,0.008403538182966614,-0.002859589174528961,28.0,39234,,,,-0.346923828125,1.236962914466858,10.058398246765137,-0.03595269098877907,0.007723170332610607,-0.008522119373083115,35.918235778808594,,,,,,,,,,,,,,,,2779096485
-0.34382977600097653,1.170533706665039,9.752792377471923,-0.0004204865016229248,0.006698941991559448,-0.0020438762540489195,28.0,39235,-8.399999618530273,5.25,-73.5,-0.394775390625,1.263281226158142,10.187597274780273,-0.03542005643248558,0.004527375567704439,-0.006924221757799387,35.918235778808594,,,,,,,,,,,,,,,,2779096485
-0.3467611701965332,1.1733006858825683,9.750094184875488,-0.0009871938618917846,0.0061629741679615786,-0.002949703887295227,27.80000114440918,39236,,,,-0.3541015684604645,1.284814476966858,10.015332221984863,-0.033822160214185715,0.005858956836163998,-0.008522119373083115,35.918235778808594,,,,,,,,,,,,,,,,2779096485
-0.3411712478637695,1.171528121948242,9.754615335083008,-0.0010736866756004334,0.005809492798904571,-0.0023142536818611145,27.80000114440918,39237,,,,-0.30146485567092896,1.2656738758087158,10.113428115844727,-0.03462110832333565,0.0055926404893398285,-0.012783179059624672,35.918235778808594,,,,,,,,,,,,,,,,2779096485
-0.343057421875,1.1727811599731446,9.745910649871826,-0.00120697122934021,0.007062949504752655,-0.0013179518091038513,27.899999618530273,39238,-8.399999618530273,5.400000095367432,-72.75,-0.31342774629592896,1.323095679283142,10.067968368530273,-0.03488742560148239,0.004793691914528608,-0.006125273182988167,35.918235778808594,,,,,,,,,,,,,,,,2779096485
-0.3420634552001953,1.1752219261169434,9.751233986663818,-0.0008269914076190185,0.006837879104674072,-0.0024024442607530213,27.899999618530273,39239,,,,-0.3301757872104645,1.263281226158142,10.0009765625,-0.03728426992893219,0.006125273182988167,-0.011185280978679657,35.918235778808594,,,,,,,,,,,,,,,,2779096485
-0.3431587326049805,1.17370697555542,9.750039080810547,-0.0012666726426667787,0.007922671161943817,-0.0013180183881306457,27.899999618530273,39240,,,,-0.36127930879592896,1.248925805091858,10.084716796875,-0.03648532181978226,0.005326324608176947,-0.013315810821950436,35.918235778808594,,,,,,,,,,,,,,,,2779096485
-0.3381682632446289,1.1699111503601074,9.758412169647217,-0.003271953034882965,0.007218484769247131,0.0005025917574658204,27.899999618530273,39241,,,,-0.37324219942092896,1.263281226158142,10.089502334594727,-0.035153742879629135,0.004261059686541557,-0.008255803026258945,35.918235778808594,,,,,,,,,,,,,,,,2779096485
-0.3447823959350586,1.1732484977722168,9.750564064788819,-0.0012183362692140198,0.006834270521421814,-0.0015819509661491394,28.100000381469727,39242,-9.149999618530273,4.800000190734863,-73.05000305175781,-0.36845701932907104,1.2824218273162842,10.106249809265137,-0.03595269098877907,0.004261059686541557,-0.010386332869529724,35.918235778808594,,,,,,,,,,,,,,,,2779096485
-0.3474611862182617,1.173830305480957,9.75202903289795,-0.001739144048410797,0.007904228771521759,-0.0033040507837005617,28.100000381469727,39243,,,,-0.36127930879592896,1.296777367591858,10.053613662719727,-0.03781690448522568,0.0037284272257238626,-0.011451597325503826,35.82411575317383,,,,,,,,,,,,,,,,2779096485
-0.3425125122070312,1.1739058586120605,9.751779232788085,-0.0016509867590322877,0.007294025333048096,-0.0012193682441293335,28.100000381469727,39244,,,,-0.4019531309604645,1.208251953125,10.07275390625,-0.037017956376075745,0.0037284272257238626,-0.010918965563178062,35.918235778808594,,,,,,,,,,,,,,,,2779096485
-0.3420502212524414,1.1729188453674315,9.747561603546142,-0.002297549004038391,0.007673931917839813,-0.0019461116111039733,28.0,39245,,,,-0.30864256620407104,1.287207007408142,10.051220893859863,-0.035153742879629135,0.006657905410975218,-0.009853700175881386,36.012351989746094,,,,,,,,,,,,,,,,2779096485
-0.34230058212280273,1.1694721122741698,9.749357569885253,-0.0014392721117286683,0.00737686295818573,-0.0022210896496676637,27.899999618530273,39246,-9.149999618530273,5.699999809265137,-72.5999984741211,-0.36127930879592896,1.2704589366912842,10.082324028015137,-0.035686373710632324,0.008255803026258945,-0.009054751135408878,35.918235778808594,,,,,,,,,,,,,,,,2779096485
-0.34099797286987305,1.1758183135986329,9.753671350860595,4.486094825408935e-05,0.007188331128011933,-0.0034934015359039308,27.899999618530273,39247,,,,-0.3541015684604645,1.272851586341858,10.070361137390137,-0.034354791045188904,0.006125273182988167,-0.011185280978679657,35.918235778808594,,,,,,,,,,,,,,,,2779096485
-0.34076686477661133,1.1750046501159668,9.751140227508545,-0.002747183803591919,0.007022955483357239,-0.0014908309100782776,27.899999618530273,39248,,,,-0.30864256620407104,1.260888695716858,10.077539443969727,-0.03542005643248558,0.0055926404893398285,-0.010120016522705555,35.918235778808594,,,,,,,,,,,,,,,,2779096485
-0.3414912551879883,1.1698657287597656,9.757291246795655,-0.0006566289938574218,0.008190019244036865,-0.001592756742197876,27.899999618530273,39249,,,,-0.3277831971645355,1.260888695716858,10.07275390625,-0.037017956376075745,0.007989486679434776,-0.011984230019152164,35.82411575317383,,,,,,,,,,,,,,,,2779096485
-0.34311514282226563,1.1683716011047363,9.75167552947998,-0.001717352732940979,0.006084264442485199,-0.002398522756074829,27.899999618530273,39250,-9.300000190734863,4.949999809265137,-72.75,-0.3636718690395355,1.22021484375,10.166064262390137,-0.037017956376075745,0.003994743339717388,-0.008522119373083115,35.918235778808594,,,,,,,,,,,,,,,,2779096485
-0.3430035888671875,1.171953963470459,9.755416063690186,-0.002002943468375702,0.00748211108374237,-0.0025853834526760864,27.899999618530273,39251,,,,-0.3660644590854645,1.284814476966858,10.077539443969727,-0.03408847749233246,0.006657905410975218,-0.011185280978679657,35.918235778808594,,,,,,,,,,,,,,,,2779096485
-0.34795454330444336,1.1709946891784668,9.755270565032959,-0.002944657197064209,0.00635050065483078,-0.001580639359321289,27.899999618530273,39252,,,,-0.30864256620407104,1.2776367664337158,10.0966796875,-0.03834953531622887,0.004261059686541557,-0.008522119373083115,35.82411575317383,,,,,,,,,,,,,,,,2779096485
-0.34646736907958986,1.1749265548706054,9.753418672180176,-0.0013767144581526185,0.007246514539527588,-0.0018609104305151367,27.899999618530273,39253,,,,-0.3182128965854645,1.26806640625,10.149316787719727,-0.034354791045188904,0.006924221757799387,-0.011451597325503826,36.012351989746094,,,,,,,,,,,,,,,,2779096485
-0.3434427017211914,1.1735916458129882,9.757145486450195,-0.001546564213407898,0.0073462898690817265,-0.001679089766242218,28.0,39254,-8.850000381469727,4.800000190734863,-72.75,-0.35888671875,1.203466773033142,10.048828125,-0.037550587207078934,0.004793691914528608,-0.009853700175881386,36.012351989746094,,,,,,,,,,,,,,,,2779096485
-0.3470018112182617,1.1735721687316893,9.756881929016114,-0.002398595993004303,0.00694650944479187,4.771718850357056e-05,28.0,39255,,,,-0.32539063692092896,1.284814476966858,10.132568359375,-0.035153742879629135,0.002929478418081999,-0.014381076209247112,35.918235778808594,,,,,,,,,,,,,,,,2779096485
-0.34448650131225583,1.17321316986084,9.760914357757567,-0.0014424412734040833,0.00862474699949112,-0.003131045182575226,28.0,39256,,,,-0.3349609375,1.2776367664337158,10.091894149780273,-0.037550587207078934,0.0050600082613527775,-0.007723170332610607,35.918235778808594,,,,,,,,,,,,,,,,2779096485
-0.3468210594177246,1.1679799285888672,9.753252388000488,-0.0020505408146310423,0.007557138989037018,-0.002038476694975891,28.0,39257,,,,-0.36127930879592896,1.26806640625,10.082324028015137,-0.03968111798167229,0.006125273182988167,-0.009853700175881386,35.918235778808594,,,,,,,,,,,,,,,,2779096485
-0.34664135437011717,1.1726521850585938,9.759471670532227,-0.002182533735251007,0.007390165447739258,-0.0017698569534710694,27.899999618530273,39258,-9.149999618530273,4.5,-72.1500015258789,-0.31342774629592896,1.2776367664337158,10.07275390625,-0.037550587207078934,0.004261059686541557,-0.013848443515598774,35.918235778808594,,,,,,,,,,,,,,,,2779096485
-0.34399456481933594,1.1681641197204589,9.751832542419434,-0.002453064294824829,0.008810509142150268,-0.002408269925597534,27.80000114440918,39259,,,,-0.27753907442092896,1.275244116783142,10.079931259155273,-0.03808322176337242,0.005858956836163998,-0.009054751135408878,35.918235778808594,,,,,,,,,,,,,,,,2779096485
-0.34450784759521486,1.170890013885498,9.748463082122802,-0.0009643106503825379,0.006921915152294006,-0.0032218323435121154,27.80000114440918,39260,,,,-0.33256834745407104,1.2226073741912842,10.039258003234863,-0.03648532181978226,0.003994743339717388,-0.010918965563178062,35.918235778808594,,,,,,,,,,,,,,,,2779096485
-0.3453229690551758,1.1722020065307617,9.755895140075683,-0.00076346170025177,0.006179166187277985,-0.000863143819168396,28.0,39261,,,,-0.346923828125,1.2824218273162842,10.015332221984863,-0.037550587207078934,0.004793691914528608,-0.007456854451447725,35.918235778808594,,,,,,,,,,,,,,,,2779096485
-0.3435036376953125,1.1697752967834472,9.751508086395264,-0.0004983306997509765,0.005266141361235199,-0.00285314432473526,28.0,39262,-8.25,5.25,-73.05000305175781,-0.394775390625,1.303955078125,10.151708602905273,-0.03595269098877907,0.007723170332610607,-0.006657905410975218,35.918235778808594,,,,,,,,,,,,,,,,2779096485
-0.34729299545288084,1.1717330612182617,9.751309128570556,-0.002811026432385101,0.007694471547605896,-0.0015812652021731568,28.0,39263,,,,-0.3660644590854645,1.2656738758087158,10.003369331359863,-0.03542005643248558,0.005858956836163998,-0.009321067482233047,35.918235778808594,,,,,,,,,,,,,,,,2779096485
-0.34850689239501953,1.1729090133666993,9.747575510406493,-0.001500777816681366,0.007155407799262085,-0.0018556040820796203,28.0,39264,,,,-0.3397460877895355,1.2824218273162842,9.97705078125,-0.03781690448522568,0.009587383829057217,-0.011717913672327995,36.012351989746094,,,,,,,,,,,,,,,,2779096485
-0.3458034286499023,1.1719893287658691,9.754694215393066,-1.904825956588745e-05,0.0076074993649043274,-0.0015906661607565308,28.0,39265,,,,-0.33256834745407104,1.248925805091858,10.046435356140137,-0.035686373710632324,0.006657905410975218,-0.011451597325503826,35.918235778808594,,,,,,,,,,,,,,,,2779096485
-0.3462063911437988,1.1735653274536133,9.749178163909912,-0.0002784334900543213,0.0067142751414302065,-0.0011338341684065246,28.0,39266,-8.399999618530273,5.400000095367432,-73.05000305175781,-0.39238280057907104,1.303955078125,10.099072456359863,-0.037550587207078934,0.004261059686541557,-0.010652649216353893,36.012351989746094,,,,,,,,,,,,,,,,2779096485
-0.3484369842529297,1.1743035499572754,9.74960669708252,-0.000725438418049469,0.007133769615553894,-0.0024024775502664185,28.0,39267,,,,-0.3660644590854645,1.2656738758087158,10.077539443969727,-0.03462110832333565,0.005326324608176947,-0.014114759862422943,35.82411575317383,,,,,,,,,,,,,,,,2779096485
-0.34744350357055664,1.1686712715148926,9.756259148406983,-0.0016148143737748717,0.007567418790774078,-0.0008627709766183472,27.899999618530273,39268,,,,-0.3277831971645355,1.263281226158142,10.156494140625,-0.033289529383182526,0.003195794764906168,-0.009054751135408878,35.918235778808594,,,,,,,,,,,,,,,,2779096485
-0.3500078239440918,1.1730554092407226,9.75124101486206,-0.001789011739479828,0.007476818051112213,-0.0009524063203916931,27.899999618530273,39269,,,,-0.34453123807907104,1.2704589366912842,10.056005477905273,-0.03648532181978226,0.004527375567704439,-0.005858956836163998,35.918235778808594,,,,,,,,,,,,,,,,2779096485
-0.34969675140380857,1.1688274993896484,9.749223847198486,-0.0021369603914102174,0.007202139618169098,-0.0015841414161306762,27.899999618530273,39270,-7.800000190734863,5.849999904632568,-72.30000305175781,-0.2583984434604645,1.239355444908142,10.032079696655273,-0.036751639097929,0.0050600082613527775,-0.010386332869529724,36.012351989746094,,,,,,,,,,,,,,,,2779096485
-0.34529747314453124,1.1686289527893066,9.757471662139892,-0.0036194955547499087,0.006935470642149353,-0.0011252587897554016,27.899999618530273,39271,,,,-0.32539063692092896,1.2704589366912842,10.103857040405273,-0.03648532181978226,0.006125273182988167,-0.013049494475126266,35.918235778808594,,,,,,,,,,,,,,,,2779096485
-0.34470056228637697,1.1705941940307616,9.7528468460083,-0.0013523665080538941,0.0073837738611669925,-0.0014063887303948975,27.899999618530273,39272,,,,-0.370849609375,1.2584960460662842,10.084716796875,-0.03728426992893219,0.007190538104623556,-0.008255803026258945,36.012351989746094,,,,,,,,,,,,,,,,2779096485
-0.34134508361816407,1.1741559951782226,9.750512586975097,0.0011736750580403138,0.008735154999624328,-0.000967120285313263,27.899999618530273,39273,,,,-0.3421386778354645,1.236962914466858,10.046435356140137,-0.03861585259437561,0.006657905410975218,-0.007456854451447725,35.918235778808594,,,,,,,,,,,,,,,,2779096485
-0.3471021873474121,1.1750542587280273,9.751750858306885,-0.001962862894245453,0.007463761903957825,-0.0024912473666914366,27.899999618530273,39274,-8.399999618530273,5.400000095367432,-72.5999984741211,-0.37324219942092896,1.2656738758087158,10.046435356140137,-0.03355584293603897,0.0055926404893398285,-0.009587383829057217,36.012351989746094,,,,,,,,,,,,,,,,2779096485
-0.3455616287231445,1.1733624443054198,9.755218152618408,-0.0022466759696647643,0.007981686811294403,-0.0006827479460688782,27.899999618530273,39275,,,,-0.418701171875,1.251318335533142,10.103857040405273,-0.036751639097929,0.006391589529812336,-0.011185280978679657,35.918235778808594,,,,,,,,,,,,,,,,2779096485
-0.34261296310424805,1.169721501159668,9.756853778839112,-0.0017256351638742066,0.007329784928339386,-0.0025844513463009642,27.899999618530273,39276,,,,-0.3517089784145355,1.248925805091858,10.146924018859863,-0.037017956376075745,0.006391589529812336,-0.010652649216353893,35.918235778808594,,,,,,,,,,,,,,,,2779096485
-0.34623996200561524,1.1736293663024902,9.749304858398437,-0.000833516152244873,0.007199203483087464,-0.0010457700896655273,28.0,39277,,,,-0.36127930879592896,1.287207007408142,10.041650772094727,-0.03621900454163551,0.007456854451447725,-0.010386332869529724,35.82411575317383,,,,,,,,,,,,,,,,2779096485
-0.34882151641845704,1.1740797317504883,9.753205246734618,-0.0006523279887265015,0.0067498882628625485,-0.002221622281882019,28.0,39278,-8.399999618530273,5.400000095367432,-73.05000305175781,-0.29667967557907104,1.260888695716858,10.122998237609863,-0.03542005643248558,0.006391589529812336,-0.007989486679434776,35.918235778808594,,,,,,,,,,,,,,,,2779096485
-0.3476467979431152,1.171936318206787,9.755031494140624,-0.0035324434772161864,0.007361942598281097,-0.0037532528195799255,28.0,39279,,,,-0.299072265625,1.275244116783142,10.082324028015137,-0.03621900454163551,0.0026631623040884733,-0.010652649216353893,36.012351989746094,,,,,,,,,,,,,,,,2779096485
-0.34385272979736325,1.1700045356750488,9.755670088195801,-0.002770746121174469,0.006359442218129272,-0.0004945556689317322,27.899999618530273,39280,,,,-0.37324219942092896,1.263281226158142,10.0966796875,-0.03808322176337242,0.008788435719907284,-0.009054751135408878,35.918235778808594,,,,,,,,,,,,,,,,2779096485
-0.34423774795532225,1.1661782424926757,9.75339467163086,-0.0025278391998176577,0.00638518832779068,-0.003938528935343476,27.80000114440918,39281,,,,-0.3780273497104645,1.2178223133087158,10.067968368530273,-0.03941480070352554,0.007456854451447725,-0.012516862712800503,35.918235778808594,,,,,,,,,,,,,,,,2779096485
-0.34388514175415036,1.1706501205444335,9.754129080963134,-0.0017209946057066346,0.005544594824997559,-0.0015820574925920106,27.80000114440918,39282,-9.0,5.400000095367432,-72.1500015258789,-0.4019531309604645,1.332666039466858,10.139745712280273,-0.03488742560148239,0.004793691914528608,-0.012250546365976334,36.012351989746094,,,,,,,,,,,,,,,,2779096485
-0.3410315811157226,1.1745367889404297,9.754498173522949,-0.0021446236373942567,0.006633088676157074,-0.0032130905172940063,27.899999618530273,39283,,,,-0.299072265625,1.2776367664337158,10.046435356140137,-0.03648532181978226,0.005326324608176947,-0.014114759862422943,35.918235778808594,,,,,,,,,,,,,,,,2779096485
-0.3462242233276367,1.1726924102783203,9.754432078552245,-0.0013305818504867554,0.00876443645560852,-0.0024957614247080994,28.0,39284,,,,-0.3636718690395355,1.232177734375,10.166064262390137,-0.03648532181978226,0.006924221757799387,-0.010120016522705555,35.918235778808594,,,,,,,,,,,,,,,,2779096485
-0.34628018722534176,1.1779202682495116,9.749620678710937,-0.0035067772623869325,0.007226454278754425,-0.003841170424461975,28.0,39285,,,,-0.3636718690395355,1.280029296875,10.079931259155273,-0.038882169872522354,0.0055926404893398285,-0.010652649216353893,35.918235778808594,,,,,,,,,,,,,,,,2779096485
-0.3409257469177246,1.1769966583251952,9.755844933319091,-0.0011674366032296754,0.007310763300384216,-0.0015869976563801574,28.0,39286,-8.399999618530273,6.150000095367432,-72.1500015258789,-0.3636718690395355,1.251318335533142,10.111035346984863,-0.035686373710632324,0.0037284272257238626,-0.009321067482233047,35.918235778808594,,,,,,,,,,,,,,,,2779096485
-0.34349227294921875,1.1687199829101562,9.756641998291016,-0.002247461602180939,0.0067889435199801635,-0.0028524119554405214,27.80000114440918,39287,,,,-0.3182128965854645,1.308740258216858,10.056005477905273,-0.037017956376075745,0.0050600082613527775,-0.011451597325503826,35.918235778808594,,,,,,,,,,,,,,,,2779096485
-0.34513952560424804,1.1743405601501464,9.754124893951415,-0.0016381769542770386,0.006818351476115265,0.0005865811997669983,27.80000114440918,39288,,,,-0.32539063692092896,1.3015625476837158,10.122998237609863,-0.037550587207078934,0.004261059686541557,-0.010918965563178062,36.012351989746094,,,,,,,,,,,,,,,,2779096485
-0.3427453773498535,1.1697987365722655,9.752544969940185,-0.00032469259787109374,0.007421990222546997,-0.003494773063855896,27.899999618530273,39289,-9.600000381469727,5.099999904632568,-73.3499984741211,-0.4019531309604645,1.3135254383087158,10.065576553344727,-0.03621900454163551,0.009054751135408878,-0.013049494475126266,35.918235778808594,,,,,,,,,,,,,,,,2779096485
-0.34094526138305664,1.171729808807373,9.75396212387085,-0.002618386676258087,0.008186397344979248,-0.0005856890408079529,28.100000381469727,39290,,,,-0.38041990995407104,1.3302733898162842,10.046435356140137,-0.03621900454163551,0.006125273182988167,-0.007989486679434776,35.918235778808594,,,,,,,,,,,,,,,,2779096485
-0.34272896575927736,1.172781047821045,9.751357017517089,-0.0011275424503744507,0.007294531333651734,-0.0012211858515608215,28.100000381469727,39291,,,,-0.34453123807907104,1.2943847179412842,10.091894149780273,-0.03595269098877907,0.007723170332610607,-0.008522119373083115,36.012351989746094,,,,,,,,,,,,,,,,2779096485
-0.3451046836853027,1.1713687911987305,9.75703595123291,-0.0024596955658935547,0.00713931564848587,-0.0036633911071154786,28.100000381469727,39292,,,,-0.3301757872104645,1.272851586341858,10.075146675109863,-0.03834953531622887,0.0055926404893398285,-0.008522119373083115,35.918235778808594,,,,,,,,,,,,,,,,2779096485
-0.34333066177368166,1.1716524612426757,9.746258583068848,-0.0005880326225511169,0.007623837858079682,-0.0007778094805259704,28.0,39293,-8.850000381469727,5.25,-73.6500015258789,-0.3828125,1.2584960460662842,10.113428115844727,-0.03408847749233246,0.003195794764906168,-0.013582127168774605,35.918235778808594,,,,,,,,,,,,,,,,2779096485
-0.3485664825439453,1.1703343002319335,9.753217919921875,-0.0015538279852311708,0.008229746949325104,-0.002225976550234375,27.899999618530273,39294,,,,-0.34931641817092896,1.2584960460662842,10.044042587280273,-0.03595269098877907,0.006924221757799387,-0.005326324608176947,35.918235778808594,,,,,,,,,,,,,,,,2779096485
-0.34096754226684567,1.170469107055664,9.751060188293456,-0.0033838524052163697,0.007509801300986175,-0.002307642384500427,27.899999618530273,39295,,,,-0.3636718690395355,1.251318335533142,10.058398246765137,-0.035153742879629135,0.005326324608176947,-0.011717913672327995,35.918235778808594,,,,,,,,,,,,,,,,2779096485
-0.3471325057983398,1.1752071968078612,9.75175313873291,-0.0006614426574946595,0.008093859155637664,-0.0013211875498060608,28.0,39296,,,,-0.3660644590854645,1.263281226158142,10.079931259155273,-0.03621900454163551,0.007723170332610607,-0.007723170332610607,35.918235778808594,,,,,,,,,,,,,,,,2779096485
-0.34636359100341796,1.1688596870422363,9.753821073913574,-0.0018767828705029297,0.007741210024415589,-0.0014963769430102539,28.0,39297,-8.850000381469727,5.550000190734863,-73.6500015258789,-0.37324219942092896,1.2704589366912842,10.175634384155273,-0.0391484834253788,0.007456854451447725,-0.009321067482233047,36.012351989746094,,,,,,,,,,,,,,,,2779096485
-0.34585886917114256,1.1744300575256348,9.754566623687744,-0.0005699497588737488,0.008624074551320495,-0.0033151894548832704,28.0,39298,,,,-0.33256834745407104,1.2824218273162842,10.118212699890137,-0.03781690448522568,0.006924221757799387,-0.011451597325503826,35.82411575317383,,,,,,,,,,,,,,,,2779096485
-0.34976725769042966,1.169199208831787,9.755823773956298,-0.002578931944979706,0.007294012017242737,-0.00022500382105178834,28.0,39299,,,,-0.370849609375,1.275244116783142,10.154101371765137,-0.035153742879629135,0.0034621108788996935,-0.008522119373083115,36.012351989746094,,,,,,,,,,,,,,,,2779096485
-0.3518393798828125,1.1726499794006346,9.75603327407837,-0.001114646092884369,0.007324312132336884,-0.0033110216078059388,28.0,39300,,,,-0.36127930879592896,1.2537109851837158,10.056005477905273,-0.03542005643248558,0.006391589529812336,-0.007723170332610607,36.012351989746094,,,,,,,,,,,,,,,,2779096485
-0.34540061569213865,1.1667244232177734,9.746354099273681,-0.0002452172135865784,0.008400508837247467,-0.003408380118687439,28.0,39301,-8.25,5.699999809265137,-73.3499984741211,-0.3421386778354645,1.251318335533142,10.036865234375,-0.03542005643248558,0.002929478418081999,-0.010386332869529724,35.918235778808594,,,,,,,,,,,,,,,,2779096485
-0.34721295623779297,1.169449681854248,9.751628089141846,-0.0006576210213566589,0.00829486123753006,0.00021804631275177002,28.0,39302,,,,-0.33256834745407104,1.272851586341858,10.139745712280273,-0.03648532181978226,0.004527375567704439,-0.011717913672327995,35.918235778808594,,,,,,,,,,,,,,,,2779096485
-0.3432302108764648,1.170140950012207,9.750552475738525,-0.0010911370385232543,0.007647746386601563,-0.0020421318835469053,28.0,39303,,,,-0.38520509004592896,1.239355444908142,10.084716796875,-0.03808322176337242,0.0050600082613527775,-0.009054751135408878,35.918235778808594,,,,,,,,,,,,,,,,2779096485
-0.3436724266052246,1.175729451751709,9.74737845916748,-0.0013539444309889222,0.008092081495622254,-0.0024955683455303956,28.0,39304,,,,-0.3158203065395355,1.299169898033142,10.106249809265137,-0.03595269098877907,0.004793691914528608,-0.011451597325503826,35.918235778808594,,,,,,,,,,,,,,,,2779096485
-0.3456974449157715,1.1695886009216307,9.75394391784668,-0.0009189104120114136,0.006654234175066986,-0.001858586822480011,28.0,39305,-8.550000190734863,5.400000095367432,-73.19999694824219,-0.370849609375,1.2824218273162842,10.051220893859863,-0.037017956376075745,0.005326324608176947,-0.011185280978679657,35.918235778808594,,,,,,,,,,,,,,,,2779096485
-0.34750974807739254,1.1713386970520019,9.753316613769531,-0.0005324191614697266,0.00810935875307541,-0.0006918692727397156,27.80000114440918,39306,,,,-0.3875976502895355,1.2178223133087158,10.108642578125,-0.03781690448522568,0.006125273182988167,-0.009853700175881386,35.82411575317383,,,,,,,,,,,,,,,,2779096485
-0.3500423294067383,1.1720175537109374,9.753297398376464,-0.002448796579207306,0.007455499446732635,-0.0035807798506689455,27.80000114440918,39307,,,,-0.33256834745407104,1.263281226158142,10.099072456359863,-0.03408847749233246,0.0034621108788996935,-0.011185280978679657,35.918235778808594,,,,,,,,,,,,,,,,2779096485
-0.3497075180053711,1.1728696479797363,9.753242331695557,-0.0006199106605802917,0.008198954149432678,-0.0006918825885450744,27.80000114440918,39308,,,,-0.370849609375,1.2417480945587158,10.077539443969727,-0.037017956376075745,0.007723170332610607,-0.009054751135408878,36.012351989746094,,,,,,,,,,,,,,,,2779096485
-0.34231897506713865,1.17086167678833,9.753954273223876,-0.0007910587068580627,0.0072853434279541015,-0.002680358434398346,27.80000114440918,39309,-8.25,5.400000095367432,-72.75,-0.39716798067092896,1.2704589366912842,10.12060546875,-0.037017956376075745,0.003994743339717388,-0.010652649216353893,35.918235778808594,,,,,,,,,,,,,,,,2779096485
-0.3448547714233398,1.1723098594665526,9.751919273376464,-0.0016590894265931702,0.005673352004915313,-0.002309453334029236,27.80000114440918,39310,,,,-0.3158203065395355,1.2584960460662842,10.044042587280273,-0.035686373710632324,0.006924221757799387,-0.012250546365976334,35.918235778808594,,,,,,,,,,,,,,,,2779096485
-0.3428288932800293,1.1733077514648438,9.752068734741211,-0.0009635316757690429,0.006483392392312469,-0.00204303735831131,27.80000114440918,39311,,,,-0.3301757872104645,1.256103515625,10.125391006469727,-0.036751639097929,0.0034621108788996935,-0.008788435719907284,35.82411575317383,,,,,,,,,,,,,,,,2779096485
-0.3424068649291992,1.176245351409912,9.747923219299317,-0.0024346551939161683,0.00578558427038269,-0.001672345310827942,27.899999618530273,39312,,,,-0.3660644590854645,1.244140625,10.012939453125,-0.03728426992893219,0.0034621108788996935,-0.008255803026258945,35.918235778808594,,,,,,,,,,,,,,,,2779096485
-0.3430997406005859,1.172543846130371,9.752118081665039,-0.002332702730185852,0.005902710094319458,-0.001581191965243683,27.899999618530273,39313,-9.0,5.550000190734863,-73.3499984741211,-0.322998046875,1.296777367591858,10.089502334594727,-0.03621900454163551,0.0037284272257238626,-0.008788435719907284,35.918235778808594,,,,,,,,,,,,,,,,2779096485
-0.3433184745788574,1.17484105758667,9.757064849090575,-0.003122017066541901,0.007423415013720398,-0.0019460184004664613,27.899999618530273,39314,,,,-0.346923828125,1.287207007408142,10.0966796875,-0.037017956376075745,0.007989486679434776,-0.010652649216353893,36.012351989746094,,,,,,,,,,,,,,,,2779096485
-0.34107700271606445,1.1718923919677735,9.753865747833252,-0.0022615696979586793,0.006319860986699981,-0.0021276060381455993,27.899999618530273,39315,,,,-0.346923828125,1.2297852039337158,10.046435356140137,-0.03408847749233246,0.0034621108788996935,-0.012783179059624672,35.918235778808594,,,,,,,,,,,,,,,,2779096485
-0.3441313529968262,1.1700131340026856,9.754399367523193,-0.0020986108719766236,0.006923845944071045,-0.002855667669850769,27.80000114440918,39316,,,,-0.3038574159145355,1.320703148841858,10.087109565734863,-0.03994743525981903,0.006125273182988167,-0.008522119373083115,35.918235778808594,,,,,,,,,,,,,,,,2779096485
-0.3443937141418457,1.1732155250549317,9.753676622009277,-0.0019243802167582702,0.007013694340730133,-0.0028565864604205324,27.80000114440918,39317,-9.300000190734863,5.699999809265137,-72.44999694824219,-0.33735352754592896,1.3254883289337158,10.044042587280273,-0.03542005643248558,0.004261059686541557,-0.012516862712800503,36.012351989746094,,,,,,,,,,,,,,,,2779096485
-0.3413001853942871,1.173401847076416,9.756659755706787,-0.00039878173888793946,0.007736922335090027,-0.001139726412277832,28.0,39318,,,,-0.3660644590854645,1.2704589366912842,10.142138481140137,-0.03542005643248558,0.005858956836163998,-0.012516862712800503,35.918235778808594,,,,,,,,,,,,,,,,2779096485
-0.34633129119873046,1.1761013854980469,9.75609327545166,-0.0023112110203366088,0.0073661570506771855,-0.0033952773662142945,28.0,39319,,,,-0.30146485567092896,1.311132788658142,10.077539443969727,-0.035153742879629135,0.003195794764906168,-0.012250546365976334,36.012351989746094,,,,,,,,,,,,,,,,2779096485
-0.3434535804748535,1.172046339416504,9.754397535705566,-0.0021400563161561585,0.008364143372812348,-0.0020410000400914,28.0,39320,-8.550000190734863,5.699999809265137,-73.3499984741211,-0.4234863221645355,1.303955078125,10.053613662719727,-0.037550587207078934,0.005326324608176947,-0.012250546365976334,36.012351989746094,,,,,,,,,,,,,,,,2779096485
-0.3437754570007324,1.171454662322998,9.757180365753173,-0.0028042153979440307,0.00715667280077118,-0.0025750836772309876,28.100000381469727,39321,,,,-0.39238280057907104,1.284814476966858,10.0966796875,-0.03542005643248558,0.00026631623040884733,-0.009853700175881386,36.012351989746094,,,,,,,,,,,,,,,,2779096485
-0.34480718154907225,1.1710995887756348,9.754769058227538,-0.0019114705434628296,0.007014886105309754,-0.0023947477252555848,28.100000381469727,39322,,,,-0.35888671875,1.303955078125,10.0966796875,-0.038882169872522354,0.007456854451447725,-0.008522119373083115,35.918235778808594,,,,,,,,,,,,,,,,2779096485
-0.34159365005493164,1.171782071685791,9.748673928070067,-0.001912888676733551,0.007381929622124786,-0.0013998839594770813,28.100000381469727,39323,,,,-0.29667967557907104,1.26806640625,10.118212699890137,-0.03648532181978226,0.005326324608176947,-0.012516862712800503,36.012351989746094,,,,,,,,,,,,,,,,2779096485
-0.3451379928588867,1.171585693359375,9.756835535430907,-0.0012636832443637086,0.007019420137034454,-0.002129896356667328,28.0,39324,-8.399999618530273,4.949999809265137,-73.05000305175781,-0.2703613340854645,1.2465331554412842,10.127782821655273,-0.03648532181978226,0.004527375567704439,-0.011185280978679657,36.012351989746094,,,,,,,,,,,,,,,,2779096485
-0.3457177070617676,1.1691545722961425,9.748479194641114,-0.001463340429914856,0.00706480040169754,-0.002131640727169342,27.899999618530273,39325,,,,-0.3995605409145355,1.835107445716858,10.048828125,-0.037550587207078934,0.002929478418081999,-0.010918965563178062,35.918235778808594,,,,,,,,,,,,,,,,2779096485
-0.34465543975830076,1.1731437103271485,9.755988338470459,0.00010213222710266113,0.008602949026118622,-0.0006935537221176148,27.899999618530273,39326,,,,-0.3636718690395355,1.3135254383087158,10.094286918640137,-0.03408847749233246,0.004261059686541557,-0.010652649216353893,35.918235778808594,,,,,,,,,,,,,,,,2779096485
-0.34428455276489256,1.1701701469421386,9.75297208251953,-0.0020010393082093812,0.006853025833269806,-0.002764301271380768,27.899999618530273,39327,,,,-0.3660644590854645,1.284814476966858,10.130175590515137,-0.03781690448522568,0.006125273182988167,-0.010652649216353893,35.82411575317383,,,,,,,,,,,,,,,,2779096485
-0.34518412475585936,1.1690617851257323,9.75784931564331,-0.001949966536755371,0.007155307930721893,-0.0021348165467474367,27.700000762939453,39328,-8.25,5.550000190734863,-73.05000305175781,-0.3397460877895355,1.308740258216858,10.146924018859863,-0.03542005643248558,0.006391589529812336,-0.013049494475126266,36.012351989746094,,,,,,,,,,,,,,,,2779096485
-0.34610141677856443,1.1709779411315917,9.751474964141845,-0.00203837016853302,0.0075169652042692565,-0.0017735520894581604,27.700000762939453,39329,,,,-0.39238280057907104,1.2919921875,10.067968368530273,-0.03408847749233246,0.006391589529812336,-0.006657905410975218,36.012351989746094,,,,,,,,,,,,,,,,2779096485
-0.35131349868774414,1.1727291961669921,9.752091763305664,-0.0022951055537550353,0.007440346060234223,-0.0012285827814376832,27.80000114440918,39330,,,,-0.346923828125,1.2824218273162842,10.118212699890137,-0.03808322176337242,0.006391589529812336,-0.011717913672327995,35.918235778808594,,,,,,,,,,,,,,,,2779096485
-0.3454081672668457,1.1755325126647949,9.752790657806397,-0.003368119781184845,0.008642943047514038,0.0003163435879110718,28.0,39331,,,,-0.37324219942092896,1.2584960460662842,10.063183784484863,-0.03861585259437561,0.003994743339717388,-0.010120016522705555,35.918235778808594,,,,,,,,,,,,,,,,2779096485
-0.34623996200561524,1.1706916915893555,9.752613644409179,-0.00012941631228302,0.007014879447407074,-0.0027677234333580015,28.0,39332,-9.0,5.25,-72.44999694824219,-0.36127930879592896,1.22021484375,10.130175590515137,-0.03488742560148239,0.004793691914528608,-0.010386332869529724,36.012351989746094,,,,,,,,,,,,,,,,2779096485
-0.3450384765625,1.1708785369873047,9.750472399139404,0.0006496914592654418,0.009083496467812806,-0.002143784741656647,28.0,39333,,,,-0.370849609375,1.26806640625,10.07275390625,-0.03595269098877907,0.005326324608176947,-0.011451597325503826,35.918235778808594,,,,,,,,,,,,,,,,2779096485
-0.3446114013671875,1.172246605682373,9.751525843811034,-0.0019002053721292114,0.007162391939172821,-0.0011343268532048034,27.899999618530273,39334,,,,-0.38520509004592896,1.303955078125,10.082324028015137,-0.035686373710632324,0.004261059686541557,-0.007989486679434776,35.82411575317383,,,,,,,,,,,,,,,,2779096485
-0.34381284103393556,1.1711938339233399,9.74726851272583,-0.0019845143937590026,0.006341572407337646,-0.002761198688732147,27.899999618530273,39335,,,,-0.3158203065395355,1.2345702648162842,10.130175590515137,-0.03621900454163551,0.005858956836163998,-0.009853700175881386,36.012351989746094,,,,,,,,,,,,,,,,2779096485
-0.3434686462402344,1.170992371368408,9.752350984191894,-0.0034884746879211424,0.008375168859649505,-0.0028550285111935427,27.899999618530273,39336,-8.100000381469727,5.699999809265137,-72.5999984741211,-0.3421386778354645,1.308740258216858,10.039258003234863,-0.037550587207078934,0.006125273182988167,-0.012250546365976334,35.918235778808594,,,,,,,,,,,,,,,,2779096485
-0.34359317245483395,1.171975122833252,9.751235668945313,-0.0030818432817741395,0.007894035522519532,-0.0005029712579185486,27.899999618530273,39337,,,,-0.35888671875,1.2584960460662842,10.065576553344727,-0.037550587207078934,0.002929478418081999,-0.009321067482233047,35.918235778808594,,,,,,,,,,,,,,,,2779096485
-0.3434082710266113,1.1728260955810546,9.751746746063231,-0.002561428318835449,0.007339378966100464,-0.0014994329203401183,27.80000114440918,39338,,,,-0.3828125,1.244140625,10.082324028015137,-0.03488742560148239,0.005858956836163998,-0.013315810821950436,35.918235778808594,,,,,,,,,,,,,,,,2779096485
-0.34578406372070314,1.1700078628540038,9.757945654296874,-0.00221264077116745,0.007343506865761719,-0.0010478739869122314,27.80000114440918,39339,,,,-0.3277831971645355,1.275244116783142,10.091894149780273,-0.03621900454163551,0.0050600082613527775,-0.009853700175881386,35.918235778808594,,,,,,,,,,,,,,,,2779096485
-0.3462767478942871,1.171064485168457,9.752182793426513,-0.0021019597970243836,0.008347625116264648,-0.004219039691033783,27.899999618530273,39340,-8.100000381469727,5.099999904632568,-72.5999984741211,-0.3756347596645355,1.3063476085662842,10.082324028015137,-0.03542005643248558,0.002929478418081999,-0.010386332869529724,36.012351989746094,,,,,,,,,,,,,,,,2779096485
-0.3494137168884277,1.1729109199523926,9.74934328918457,-0.0019882960824809267,0.007264118034212036,0.00031455926999298094,28.0,39341,,,,-0.3995605409145355,1.327880859375,10.089502334594727,-0.03621900454163551,0.006924221757799387,-0.006924221757799387,35.918235778808594,,,,,,,,,,,,,,,,2779096485
-0.3456618553161621,1.1734056228637695,9.752100062561034,-0.00015859124182434083,0.008159619260402528,-5.717806821105957e-05,28.0,39342,,,,-0.3349609375,1.236962914466858,10.044042587280273,-0.037017956376075745,0.004261059686541557,-0.012783179059624672,35.918235778808594,,,,,,,,,,,,,,,,2779096485
-0.34883979721069336,1.1700926498413085,9.752920043945313,-0.0019030949018920898,0.00815110380287552,-0.0008661132437634277,28.0,39343,,,,-0.39238280057907104,1.2656738758087158,10.118212699890137,-0.03621900454163551,0.005858956836163998,-0.011185280978679657,35.918235778808594,,,,,,,,,,,,,,,,2779096485
-0.3483335052490234,1.169579404449463,9.751251706695557,-0.0009405752273303222,0.0073328209319612125,-0.002315518683370209,28.0,39344,-8.850000381469727,5.400000095367432,-72.75,-0.3636718690395355,1.2824218273162842,10.022509574890137,-0.034354791045188904,0.004793691914528608,-0.011185280978679657,35.82411575317383,,,,,,,,,,,,,,,,2779096485
-0.34821058654785153,1.1711063552856444,9.750161289215088,-0.0014633071404014588,0.006979672458038178,-0.001587996341782074,28.0,39345,,,,-0.38520509004592896,1.299169898033142,10.125391006469727,-0.03488742560148239,0.006391589529812336,-0.007989486679434776,35.918235778808594,,,,,,,,,,,,,,,,2779096485
-0.3474480270385742,1.1718580360412598,9.752245000457764,-0.0005971672650273133,0.007504341820789032,-0.002227208262230072,28.0,39346,,,,-0.3158203065395355,1.311132788658142,10.180419921875,-0.035686373710632324,0.004793691914528608,-0.011451597325503826,35.918235778808594,,,,,,,,,,,,,,,,2779096485
-0.3438338134765625,1.173137579345703,9.750323498535156,-0.000990156628584137,0.0071532040334751894,-0.002500382009167633,27.80000114440918,39347,,,,-0.31103515625,1.311132788658142,10.012939453125,-0.03728426992893219,0.005326324608176947,-0.008788435719907284,35.918235778808594,,,,,,,,,,,,,,,,2779096485
-0.347661302947998,1.1747354103088379,9.750134858703612,-0.0013386645443395997,0.006889903956211243,-0.0017737784581492615,27.80000114440918,39348,-9.600000381469727,5.550000190734863,-72.5999984741211,-0.37324219942092896,1.2656738758087158,10.158886909484863,-0.03488742560148239,0.004793691914528608,-0.009321067482233047,36.012351989746094,,,,,,,,,,,,,,,,2779096485
-0.34751415939331054,1.172781047821045,9.751222023773193,-0.001953388698732605,0.008408504978365478,-0.0024108864813505554,27.80000114440918,39349,,,,-0.3397460877895355,1.3422362804412842,10.070361137390137,-0.03808322176337242,0.006125273182988167,-0.011451597325503826,35.918235778808594,,,,,,,,,,,,,,,,2779096485
-0.3484657699584961,1.1711468048095703,9.755927701568604,-0.003214974703752289,0.0075975524583012394,-0.0014939667822402953,28.0,39350,,,,-0.36127930879592896,1.3374512195587158,10.063183784484863,-0.035686373710632324,0.005858956836163998,-0.012783179059624672,35.82411575317383,,,,,,,,,,,,,,,,2779096485
-0.3455492919921875,1.1778449020385742,9.754236298370362,-0.0016345151078033448,0.0057293449664494326,-0.0009490973427600098,28.0,39351,,,,-0.3517089784145355,1.2656738758087158,10.113428115844727,-0.036751639097929,0.004793691914528608,-0.008522119373083115,35.82411575317383,,,,,,,,,,,,,,,,2779096485
-0.3448127517700195,1.17419308013916,9.752548371887206,-0.001724470030905304,0.006629812988038788,-0.0004991562796832276,28.0,39352,-8.550000190734863,5.699999809265137,-72.5999984741211,-0.322998046875,1.263281226158142,10.077539443969727,-0.036751639097929,0.0055926404893398285,-0.010386332869529724,35.918235778808594,,,,,,,,,,,,,,,,2779096485
-0.34407845458984376,1.170298112487793,9.751518815612792,-0.00262062373155838,0.0063867995402391055,-0.0026708509493721007,27.899999618530273,39353,,,,-0.346923828125,1.256103515625,10.005762100219727,-0.036751639097929,0.002396845957264304,-0.008255803026258945,35.82411575317383,,,,,,,,,,,,,,,,2779096485
-0.3429317741394043,1.1772635055541991,9.753370596313475,-0.001052700966354828,0.006945337653920288,-0.00041430131003372195,27.899999618530273,39354,,,,-0.38041990995407104,1.244140625,10.125391006469727,-0.035686373710632324,0.004527375567704439,-0.009054751135408878,36.012351989746094,,,,,,,,,,,,,,,,2779096485
-0.3438313087463379,1.1722485122680664,9.751114058685303,-0.0014034858848266602,0.007911725569938813,-0.0027709924635736082,27.899999618530273,39355,,,,-0.3397460877895355,1.260888695716858,10.082324028015137,-0.036751639097929,0.004793691914528608,-0.010120016522705555,36.012351989746094,,,,,,,,,,,,,,,,2779096485
-0.3408471656799316,1.1752956848144531,9.755636367797852,-0.0012036555938058472,0.005896405060482025,-0.0014044246491044616,28.0,39356,-8.25,5.25,-72.30000305175781,-0.33256834745407104,1.2919921875,10.111035346984863,-0.037017956376075745,0.0021305298432707787,-0.008255803026258945,35.918235778808594,,,,,,,,,,,,,,,,2779096485
-0.34323694000244137,1.1712105445861816,9.75837975769043,-0.0026872893110876464,0.00796113386572296,-0.002039974723078766,28.0,39357,,,,-0.3397460877895355,1.248925805091858,10.063183784484863,-0.038882169872522354,0.0050600082613527775,-0.006657905410975218,35.918235778808594,,,,,,,,,,,,,,,,2779096485
-0.3399800056457519,1.1758543144226075,9.752011350250244,-0.0014642325888739015,0.007505600164395447,-0.00303877330934082,28.0,39358,,,,-0.39716798067092896,1.263281226158142,10.099072456359863,-0.03728426992893219,0.006125273182988167,-0.009054751135408878,36.012351989746094,,,,,,,,,,,,,,,,2779096485
-0.34257374725341794,1.1740240669250488,9.755427503204345,-0.0027854600860960387,0.006497187566664276,-0.0023075225422521974,28.0,39359,,,,-0.3349609375,1.236962914466858,10.087109565734863,-0.03488742560148239,0.0018642136128619313,-0.012516862712800503,35.82411575317383,,,,,,,,,,,,,,,,2779096485
-0.3436534355163574,1.170813638305664,9.751758596801757,-0.0021865151610533143,0.006937414749731751,-0.0012253603565408324,27.899999618530273,39360,-9.149999618530273,5.25,-72.75,-0.370849609375,1.26806640625,10.156494140625,-0.03542005643248558,0.003195794764906168,-0.009321067482233047,36.012351989746094,,,,,,,,,,,,,,,,2779096485
-0.34419569091796876,1.1705315383911132,9.761557363128661,-0.0019854331843287658,0.006444903056922607,-0.0011315105603713989,27.899999618530273,39361,,,,-0.38520509004592896,1.2537109851837158,10.084716796875,-0.035686373710632324,0.004527375567704439,-0.013315810821950436,36.012351989746094,,,,,,,,,,,,,,,,2779096485
-0.34531167907714844,1.1734705963134766,9.75980386505127,-0.002893730899469147,0.006568094230200348,-0.00031693614124954226,27.899999618530273,39362,,,,-0.370849609375,1.213037133216858,10.137353897094727,-0.03595269098877907,0.008522119373083115,-0.008788435719907284,36.012351989746094,,,,,,,,,,,,,,,,2779096485
-0.3458673927307129,1.1738243240356445,9.755799960327147,-0.0008175505016195678,0.007699018895135956,-0.0015973174055332947,27.80000114440918,39363,-8.399999618530273,4.949999809265137,-72.75,-0.37324219942092896,1.2776367664337158,10.122998237609863,-0.033822160214185715,0.005326324608176947,-0.010386332869529724,35.918235778808594,,,,,,,,,,,,,,,,2779096485
-0.3444961090087891,1.169128515625,9.755708631134032,-0.0029126127114680483,0.007891505519501343,0.0002204564735217285,27.80000114440918,39364,,,,-0.34453123807907104,1.275244116783142,10.079931259155273,-0.03728426992893219,0.0055926404893398285,-0.010386332869529724,35.82411575317383,,,,,,,,,,,,,,,,2779096485
-0.3479513656616211,1.170078219604492,9.749244483184814,-0.0018579742954335022,0.007337441516420746,-0.002859782253706665,27.899999618530273,39365,,,,-0.3421386778354645,1.1962890625,10.130175590515137,-0.036751639097929,0.0037284272257238626,-0.010386332869529724,36.012351989746094,,,,,,,,,,,,,,,,2779096485
-0.34533609085083006,1.172217707824707,9.752543885803222,-0.001926810351236267,0.0076550767374516295,-0.0012287825185180665,27.899999618530273,39366,,,,-0.38520509004592896,1.2465331554412842,10.14453125,-0.033289529383182526,0.006924221757799387,-0.010652649216353893,35.918235778808594,,,,,,,,,,,,,,,,2779096485
-0.34263131866455077,1.172245110321045,9.758955172729491,-0.0009656622046264648,0.0072030783824469,-0.0017738849845921325,27.899999618530273,39367,-8.850000381469727,5.25,-72.5999984741211,-0.3038574159145355,1.2656738758087158,10.125391006469727,-0.037017956376075745,0.005326324608176947,-0.009853700175881386,36.012351989746094,,,,,,,,,,,,,,,,2779096485
-0.3414677406311035,1.1702691772460938,9.756800917816161,-0.0010512562014733887,0.006493159535543213,-0.0008655073746195984,27.899999618530273,39368,,,,-0.32060545682907104,1.303955078125,10.0966796875,-0.03728426992893219,0.006657905410975218,-0.009587383829057217,35.918235778808594,,,,,,,,,,,,,,,,2779096485
-0.34420735473632813,1.169414353942871,9.758935882568359,-0.00041846249920837405,0.007698859105471649,-0.0015035941095147705,28.0,39369,,,,-0.31342774629592896,1.2537109851837158,10.056005477905273,-0.037550587207078934,0.007190538104623556,-0.011185280978679657,36.012351989746094,,,,,,,,,,,,,,,,2779096485
-0.34283539810180663,1.1681453903198242,9.754943230438233,-0.0007679957319764709,0.008048119364229889,-0.0025903103006588747,28.0,39370,,,,-0.38520509004592896,1.2919921875,10.048828125,-0.037017956376075745,0.006125273182988167,-0.012516862712800503,35.918235778808594,,,,,,,,,,,,,,,,2779096485
-0.34434675979614254,1.1716426292419433,9.749887301635741,-0.0009388042252175904,0.006705087235732574,-0.0023133215754859923,28.0,39371,-9.600000381469727,5.849999904632568,-72.9000015258789,-0.3349609375,1.232177734375,10.099072456359863,-0.03488742560148239,0.0050600082613527775,-0.006125273182988167,35.918235778808594,,,,,,,,,,,,,,,,2779096485
-0.34615457687377926,1.174062385559082,9.748393622589111,-0.0009506153445709228,0.007228924360648498,-0.0018632207227449035,27.899999618530273,39372,,,,-0.3756347596645355,1.251318335533142,10.115819931030273,-0.03941480070352554,0.006125273182988167,-0.012250546365976334,36.012351989746094,,,,,,,,,,,,,,,,2779096485
-0.34324108963012695,1.172561304473877,9.756462741851806,-0.0028840835984866335,0.00692915895040924,-0.002128484881299286,27.80000114440918,39373,,,,-0.36127930879592896,1.2776367664337158,10.154101371765137,-0.036751639097929,0.0055926404893398285,-0.011984230019152164,35.918235778808594,,,,,,,,,,,,,,,,2779096485
-0.3424715019226074,1.1742614181518554,9.749310316467286,-0.0012274575958848572,0.0072887123267099,-0.0022260697608718874,27.80000114440918,39374,,,,-0.322998046875,1.2226073741912842,10.07275390625,-0.036751639097929,0.003994743339717388,-0.011451597325503826,35.82411575317383,,,,,,,,,,,,,,,,2779096485
-0.3457649230957031,1.1714623260498047,9.751292455291749,-0.0006146775490742493,0.006486002290162812,-0.0017725800356669617,27.80000114440918,39375,-8.399999618530273,4.800000190734863,-72.9000015258789,-0.33735352754592896,1.2537109851837158,10.173242568969727,-0.035686373710632324,0.006657905410975218,-0.009321067482233047,35.918235778808594,,,,,,,,,,,,,,,,2779096485
-0.3441805877685547,1.1714373161315919,9.756458293151855,-0.0014037588588365173,0.007748294032866516,-0.0008686965100030518,27.80000114440918,39376,,,,-0.3995605409145355,1.256103515625,10.125391006469727,-0.03408847749233246,0.0037284272257238626,-0.012783179059624672,36.012351989746094,,,,,,,,,,,,,,,,2779096485
-0.3435299560546875,1.1761874435424804,9.756485433959961,-0.00017952368784851074,0.007099754390764618,-0.003496856987394562,27.80000114440918,39377,,,,-0.3277831971645355,1.2465331554412842,10.087109565734863,-0.03621900454163551,0.005858956836163998,-0.009321067482233047,35.918235778808594,,,,,,,,,,,,,,,,2779096485
-0.3457945686340332,1.175593299102783,9.746504046630859,-0.0016630175891740417,0.0071058996349377445,-0.002586142453581543,27.80000114440918,39378,,,,-0.3541015684604645,1.284814476966858,10.065576553344727,-0.034354791045188904,0.007456854451447725,-0.007989486679434776,35.918235778808594,,,,,,,,,,,,,,,,2779096485
-0.34335249404907225,1.173231450653076,9.748563458251953,-0.0005259210484545899,0.0058636614951045225,-0.001136796935098877,27.80000114440918,39379,-9.149999618530273,5.400000095367432,-72.44999694824219,-0.39716798067092896,1.280029296875,10.084716796875,-0.035153742879629135,0.0055926404893398285,-0.012250546365976334,35.918235778808594,,,,,,,,,,,,,,,,2779096485
-0.34432118911743165,1.1718920555114745,9.749152069854736,-0.0017489444811549378,0.00631844285342926,-0.0002285591410826111,27.80000114440918,39380,,,,-0.4019531309604645,1.26806640625,10.063183784484863,-0.03648532181978226,0.0055926404893398285,-0.013315810821950436,35.918235778808594,,,,,,,,,,,,,,,,2779096485
-0.34331563339233395,1.1691219360351561,9.755549487304688,8.886302706253051e-05,0.00631473440163681,-0.0019550931218185424,27.899999618530273,39381,,,,-0.38041990995407104,1.263281226158142,10.079931259155273,-0.037550587207078934,0.004793691914528608,-0.009054751135408878,35.918235778808594,,,,,,,,,,,,,,,,2779096485
-0.3473675765991211,1.1708322555541992,9.748695274353027,-0.0011748535068145751,0.006307830156558228,-0.0014032262266221618,28.0,39382,,,,-0.28471678495407104,1.2895996570587158,10.044042587280273,-0.03542005643248558,0.006391589529812336,-0.007723170332610607,35.918235778808594,,,,,,,,,,,,,,,,2779096485
-0.3486069694519043,1.1679012351989746,9.75150337600708,-0.0024834243310430906,0.0064745373817488095,-0.0027576433687013244,28.0,39383,-8.550000190734863,4.5,-73.19999694824219,-0.33735352754592896,1.263281226158142,10.053613662719727,-0.036751639097929,0.003994743339717388,-0.012250546365976334,36.012351989746094,,,,,,,,,,,,,,,,2779096485
-0.34461816787719723,1.1686763931274413,9.75238934020996,-0.002486447018859558,0.007212419419906159,-0.000315145165428772,28.0,39384,,,,-0.33735352754592896,1.287207007408142,9.984228134155273,-0.03781690448522568,0.0055926404893398285,-0.010652649216353893,35.918235778808594,,,,,,,,,,,,,,,,2779096485
-0.34527343521118165,1.1718485404968262,9.752654206085206,-0.0017233714769631957,0.0064383250490753175,-0.0019474232179318238,27.899999618530273,39385,,,,-0.3397460877895355,1.2704589366912842,10.166064262390137,-0.035686373710632324,0.004793691914528608,-0.009054751135408878,35.918235778808594,,,,,,,,,,,,,,,,2779096485
-0.34590156173706055,1.1733430046081543,9.752753984069823,-0.0017230186081211853,0.006262010470318298,-0.0015845741798048401,27.899999618530273,39386,,,,-0.3541015684604645,1.2895996570587158,10.041650772094727,-0.037017956376075745,0.005326324608176947,-0.007456854451447725,35.918235778808594,,,,,,,,,,,,,,,,2779096485
-0.3455138893127441,1.1705627166748047,9.754518921661377,-0.0012931311479148864,0.008335600944025573,-0.0003255314936087036,27.899999618530273,39387,-9.149999618530273,5.400000095367432,-73.5,-0.31103515625,1.272851586341858,10.075146675109863,-0.037017956376075745,0.005858956836163998,-0.010652649216353893,36.012351989746094,,,,,,,,,,,,,,,,2779096485
-0.3449986999511719,1.1694279991149903,9.755036877441405,-0.0025633258210990906,0.007478901974650879,-0.002759993608347168,28.100000381469727,39388,,,,-0.36845701932907104,1.2656738758087158,10.12060546875,-0.03488742560148239,0.002396845957264304,-0.013049494475126266,36.012351989746094,,,,,,,,,,,,,,,,2779096485
-0.34590552444458006,1.169403325653076,9.753876514434815,-0.0014145180295664977,0.007429067573095245,-0.001313517645919342,28.100000381469727,39389,,,,-0.31103515625,1.2895996570587158,10.075146675109863,-0.03542005643248558,0.004793691914528608,-0.007723170332610607,35.918235778808594,,,,,,,,,,,,,,,,2779096485
-0.34326931457519533,1.1759516998291015,9.75991149368286,-0.0017608821006591796,0.006614826049107361,-0.002124476823886261,28.100000381469727,39390,,,,-0.370849609375,1.2465331554412842,10.070361137390137,-0.035153742879629135,0.0050600082613527775,-0.010652649216353893,35.918235778808594,,,,,,,,,,,,,,,,2779096485
-0.3452053588867187,1.1713193321228026,9.754993138122558,-0.0023988623091114806,0.005406596476160736,-0.0007623631463096618,28.0,39391,-8.399999618530273,5.699999809265137,-72.5999984741211,-0.3517089784145355,1.2345702648162842,10.12060546875,-0.036751639097929,0.004527375567704439,-0.008788435719907284,35.918235778808594,,,,,,,,,,,,,,,,2779096485
-0.34578342819213864,1.1735880569458008,9.753628022766113,-0.002291137443758087,0.006007039429306336,-0.0010424411383258057,27.80000114440918,39392,,,,-0.38041990995407104,1.287207007408142,9.97705078125,-0.036751639097929,0.0037284272257238626,-0.009587383829057217,35.918235778808594,,,,,,,,,,,,,,,,2779096485
-0.34964127349853513,1.1733496589660644,9.755806652069092,-0.002821892129557953,0.006890749509851532,-0.001496949522640686,27.80000114440918,39393,,,,-0.3636718690395355,1.272851586341858,10.127782821655273,-0.03621900454163551,0.004793691914528608,-0.007190538104623556,35.918235778808594,,,,,,,,,,,,,,,,2779096485
-0.3486966537475586,1.1734579978942872,9.758089059448242,-0.002278926850243988,0.005218390883218231,-0.000948245131217041,27.899999618530273,39394,,,,-0.30864256620407104,1.308740258216858,10.082324028015137,-0.03648532181978226,0.005858956836163998,-0.015446340665221214,35.918235778808594,,,,,,,,,,,,,,,,2779096485
-0.34790575714111327,1.1694180549621582,9.753240425109864,-0.0018977885534565734,0.006352271656943512,-0.001493720439841156,28.0,39395,-9.149999618530273,5.25,-73.3499984741211,-0.418701171875,1.2465331554412842,10.132568359375,-0.03595269098877907,0.0010652649216353893,-0.010918965563178062,35.918235778808594,,,,,,,,,,,,,,,,2779096485
-0.34285999679565426,1.1728512924194336,9.75116852722168,-0.0018128270573641969,0.007075080203434601,-0.0008626444764674377,28.0,39396,,,,-0.3541015684604645,1.2656738758087158,10.051220893859863,-0.03542005643248558,0.006924221757799387,-0.010386332869529724,36.012351989746094,,,,,,,,,,,,,,,,2779096485
-0.3437204650878906,1.1750692123413085,9.753501739501953,-0.001283257478241272,0.00517570041123764,-0.0028501016632107544,28.0,39397,,,,-0.370849609375,1.260888695716858,10.122998237609863,-0.03648532181978226,0.001597897382453084,-0.008788435719907284,35.82411575317383,,,,,,,,,,,,,,,,2779096485
-0.3407841361999512,1.1722421195983885,9.7485979637146,-0.001612430844615631,0.006758064167352905,-0.0011316104289115906,28.0,39398,,,,-0.33256834745407104,1.3015625476837158,10.099072456359863,-0.03408847749233246,0.004793691914528608,-0.005858956836163998,35.918235778808594,,,,,,,,,,,,,,,,2779096485
-0.34061740341186525,1.1716394889831543,9.754714739227294,-0.0004784968076689148,0.006932447954332886,-0.0018606307986026001,28.0,39399,-9.0,4.800000190734863,-72.1500015258789,-0.3062500059604645,1.2704589366912842,10.099072456359863,-0.034354791045188904,0.0050600082613527775,-0.009587383829057217,35.918235778808594,,,,,,,,,,,,,,,,2779096485
-0.3421726539611816,1.1717486877441405,9.75956378479004,-0.0037989393477662657,0.00692654239465622,-0.0011250590526750183,28.0,39400,,,,-0.31342774629592896,1.203466773033142,10.132568359375,-0.03408847749233246,0.008522119373083115,-0.011984230019152164,36.012351989746094,,,,,,,,,,,,,,,,2779096485
-0.3437565406799316,1.1712195915222168,9.75725816192627,-0.0016628844311204528,0.007272360517729187,-0.004126215211876984,27.80000114440918,39401,,,,-0.3780273497104645,1.275244116783142,10.130175590515137,-0.03408847749233246,0.004793691914528608,-0.008522119373083115,35.918235778808594,,,,,,,,,,,,,,,,2779096485
-0.34133192443847654,1.1762180236816406,9.753860401916503,-0.0013810221211862184,0.0068849504766177365,-0.001135611828421936,27.80000114440918,39402,,,,-0.30864256620407104,1.2417480945587158,10.075146675109863,-0.035686373710632324,0.0037284272257238626,-0.011717913672327995,35.918235778808594,,,,,,,,,,,,,,,,2779096485
-0.3386238998413086,1.1746891662597656,9.752773386383057,-0.0018130334523472596,0.0073327277213237,-0.0022219285454052736,27.80000114440918,39403,-8.25,5.550000190734863,-72.75,-0.38041990995407104,1.2656738758087158,10.034472465515137,-0.03781690448522568,0.004527375567704439,-0.009054751135408878,35.918235778808594,,,,,,,,,,,,,,,,2779096485
-0.3421152320861816,1.174291138458252,9.756404796600341,-0.001900771293856964,0.007511998408870392,-0.002222248124733887,27.80000114440918,39404,,,,-0.3301757872104645,1.26806640625,10.079931259155273,-0.037017956376075745,0.0034621108788996935,-0.009587383829057217,35.918235778808594,,,,,,,,,,,,,,,,2779096485
-0.3393383460998535,1.1674953941345214,9.754514435577391,-0.0024223580476672364,0.006712743823813935,-0.0012214854571813965,27.80000114440918,39405,,,,-0.30146485567092896,1.227392554283142,10.134961128234863,-0.03542005643248558,0.003994743339717388,-0.012783179059624672,36.012351989746094,,,,,,,,,,,,,,,,2779096485
-0.34587516860961914,1.1689102302551269,9.75679774017334,-0.0018148377439733887,0.007961220418457794,-0.0021335715189463806,27.80000114440918,39406,,,,-0.299072265625,1.244140625,10.053613662719727,-0.03834953531622887,0.002396845957264304,-0.005326324608176947,36.012351989746094,,,,,,,,,,,,,,,,2779096485
-0.34394346084594724,1.1756581230163574,9.75906216583252,-0.001460996848171692,0.006256198121279144,-0.002309926045119476,27.80000114440918,39407,-9.0,4.800000190734863,-73.05000305175781,-0.299072265625,1.2417480945587158,10.07275390625,-0.03595269098877907,0.004793691914528608,-0.014647392556071281,35.918235778808594,,,,,,,,,,,,,,,,2779096485
-0.3453844284057617,1.1714690925598144,9.756396011352539,-0.001549660138153839,0.006538792800508118,-0.0006805641539900208,27.80000114440918,39408,,,,-0.37324219942092896,1.184326171875,10.115819931030273,-0.035686373710632324,0.003195794764906168,-0.005858956836163998,35.918235778808594,,,,,,,,,,,,,,,,2779096485
-0.34004232482910157,1.1698585884094237,9.758571463012695,-0.002160948814764252,0.006972928002623902,-0.002310012597854309,27.80000114440918,39409,,,,-0.4019531309604645,1.2704589366912842,10.101465225219727,-0.03834953531622887,0.004261059686541557,-0.010386332869529724,35.82411575317383,,,,,,,,,,,,,,,,2779096485
-0.342131307220459,1.1697221366882324,9.755988413238525,-0.0017136376232458495,0.0065440059383061215,-0.0021280254860144045,28.0,39410,,,,-0.33735352754592896,1.284814476966858,10.051220893859863,-0.037550587207078934,0.006125273182988167,-0.013315810821950436,35.918235778808594,,,,,,,,,,,,,,,,2779096485
-0.34395998458862304,1.1732956016540528,9.754014012908936,-0.000979464036880951,0.007875599790000153,-0.0015882693157919312,28.100000381469727,39411,-9.449999809265137,5.550000190734863,-72.30000305175781,-0.33735352754592896,1.22021484375,10.087109565734863,-0.038882169872522354,0.000798948691226542,-0.014381076209247112,35.918235778808594,,,,,,,,,,,,,,,,2779096485
-0.3444431732177734,1.1689518760681152,9.759129270172119,-0.0015869377352560425,0.006795102079958649,-0.0020351610594415283,28.100000381469727,39412,,,,-0.322998046875,1.296777367591858,10.079931259155273,-0.03542005643248558,0.003994743339717388,-0.007190538104623556,35.918235778808594,,,,,,,,,,,,,,,,2779096485
-0.34335010147094724,1.1731623649597167,9.756777403259276,-0.001166124996401825,0.00857726283758133,-0.0013193166791531372,28.100000381469727,39413,,,,-0.2823242247104645,1.251318335533142,10.170849800109863,-0.0391484834253788,0.006125273182988167,-0.011717913672327995,35.918235778808594,,,,,,,,,,,,,,,,2779096485
-0.34072663955688476,1.1660330055236816,9.75509702835083,-0.002139989737129364,0.008278256428247529,-0.0015879097890472412,28.0,39414,-9.300000190734863,5.550000190734863,-73.05000305175781,-0.3828125,1.2824218273162842,10.060791015625,-0.03408847749233246,0.005326324608176947,-0.013049494475126266,35.918235778808594,,,,,,,,,,,,,,,,2779096485
-0.3437727653503418,1.1712657234191894,9.759682516479492,-0.001787120895118866,0.0069311762949211125,-0.0018560834510725403,28.0,39415,,,,-0.34931641817092896,1.3015625476837158,10.113428115844727,-0.03808322176337242,0.0034621108788996935,-0.008788435719907284,35.918235778808594,,,,,,,,,,,,,,,,2779096485
-0.3442959548950195,1.1706989440917968,9.757126383209227,-0.0017933060867080688,0.0073700386079393,-0.0019486149825114442,28.0,39416,,,,-0.39238280057907104,1.287207007408142,10.194775581359863,-0.035153742879629135,0.005326324608176947,-0.009587383829057217,35.918235778808594,,,,,,,,,,,,,,,,2779096485
-0.3413395881652832,1.1719117568969726,9.757345378875732,-0.002889543078683777,0.008731020442060394,-0.0011386544899464417,27.80000114440918,39417,,,,-0.31342774629592896,1.263281226158142,10.082324028015137,-0.03621900454163551,0.0037284272257238626,-0.012250546365976334,35.918235778808594,,,,,,,,,,,,,,,,2779096485
-0.34330699768066403,1.1757209281921386,9.750777153778076,-0.0018392189835855102,0.007394473110772857,-0.00023202790837860106,27.80000114440918,39418,-9.600000381469727,4.650000095367432,-71.8499984741211,-0.39238280057907104,1.2584960460662842,10.046435356140137,-0.03728426992893219,0.0055926404893398285,-0.009054751135408878,35.918235778808594,,,,,,,,,,,,,,,,2779096485
-0.3439955741882324,1.1717682022094726,9.757410651397704,-0.0017519405373606872,0.007393800662602234,-0.0003228883062449646,27.80000114440918,39419,,,,-0.38041990995407104,1.251318335533142,9.998583793640137,-0.03621900454163551,0.0026631623040884733,-0.010918965563178062,35.918235778808594,,,,,,,,,,,,,,,,2779096485
-0.34426260833740235,1.1741516212463379,9.75495347366333,-0.0004178899195779419,0.007433614920625305,-0.0010498713577160644,27.899999618530273,39420,,,,-0.370849609375,1.2895996570587158,10.032079696655273,-0.034354791045188904,0.006391589529812336,-0.010120016522705555,35.918235778808594,,,,,,,,,,,,,,,,2779096485
-0.3443396942138672,1.1723985717773437,9.751377503967285,-0.001378645249929657,0.008131136752739868,-0.0033129457416802978,27.899999618530273,39421,,,,-0.34931641817092896,1.296777367591858,10.182812690734863,-0.037550587207078934,0.0026631623040884733,-0.009587383829057217,35.918235778808594,,,,,,,,,,,,,,,,2779096485
-0.34606134109497066,1.1672342292785645,9.757085186004637,-0.0012047474898452758,0.008227809499645385,-0.0024988573494540405,27.899999618530273,39422,-8.100000381469727,5.550000190734863,-73.05000305175781,-0.30146485567092896,1.232177734375,10.106249809265137,-0.036751639097929,0.004793691914528608,-0.009587383829057217,35.918235778808594,,,,,,,,,,,,,,,,2779096485
-0.34771337890625,1.173288461303711,9.753327716827393,0.00017098159871078492,0.00802549581092514,-0.0011463643412492372,27.899999618530273,39423,,,,-0.36127930879592896,1.311132788658142,10.091894149780273,-0.03621900454163551,0.004261059686541557,-0.010918965563178062,35.918235778808594,,,,,,,,,,,,,,,,2779096485
-0.3465326789855957,1.1695761520385741,9.759305461120606,-0.001315861227662506,0.007565993999600677,-0.001230593468046875,27.80000114440918,39424,,,,-0.34453123807907104,1.26806640625,10.146924018859863,-0.03488742560148239,0.006125273182988167,-0.0055926404893398285,36.012351989746094,,,,,,,,,,,,,,,,2779096485
-0.3469051734924316,1.170325365447998,9.754883715057373,-0.0013155017009178161,0.007474041705694885,-0.0015019429496502686,27.80000114440918,39425,,,,-0.346923828125,1.2537109851837158,10.106249809265137,-0.03808322176337242,0.0037284272257238626,-0.013582127168774605,35.918235778808594,,,,,,,,,,,,,,,,2779096485
-0.3441901206970215,1.1704405456542968,9.753744735717774,-0.0008627443450076294,0.006879564233350067,-0.0007756057147390747,27.899999618530273,39426,-9.449999809265137,4.800000190734863,-73.05000305175781,-0.3756347596645355,1.2417480945587158,10.137353897094727,-0.03834953531622887,0.005858956836163998,-0.010386332869529724,35.918235778808594,,,,,,,,,,,,,,,,2779096485
-0.3471934791564941,1.173248161315918,9.754806853485107,0.00028008464991882324,0.007517903968547058,-0.0017770608041702272,27.899999618530273,39427,,,,-0.3660644590854645,1.303955078125,10.166064262390137,-0.03861585259437561,0.005326324608176947,-0.009587383829057217,35.918235778808594,,,,,,,,,,,,,,,,2779096485
-0.3449300628662109,1.1685358665466308,9.750256244659424,-0.0014633470878175354,0.006896062516189728,-0.0008632303719032288,27.899999618530273,39428,,,,-0.322998046875,1.3135254383087158,10.029687881469727,-0.03488742560148239,0.009321067482233047,-0.010652649216353893,35.918235778808594,,,,,,,,,,,,,,,,2779096485
-0.3478232131958008,1.1719372154235839,9.747939331817626,-0.0008642090835971069,0.007585601522991639,-0.0021364543908065797,27.899999618530273,39429,,,,-0.33256834745407104,1.287207007408142,10.134961128234863,-0.03488742560148239,0.006924221757799387,-0.009587383829057217,36.012351989746094,,,,,,,,,,,,,,,,2779096485
-0.3436410614013672,1.1671641716003418,9.75010225982666,-0.0011413243089208984,0.007311535617095031,0.0004903079270222473,27.80000114440918,39430,-8.550000190734863,5.099999904632568,-73.19999694824219,-0.3158203065395355,1.3135254383087158,10.032079696655273,-0.035686373710632324,0.0037284272257238626,-0.008788435719907284,35.918235778808594,,,,,,,,,,,,,,,,2779096485
-0.34599008712768553,1.1739515045166016,9.753833709716796,-0.003143628618639374,0.005954588471997681,-0.0006752245160411072,27.80000114440918,39431,,,,-0.346923828125,1.299169898033142,10.182812690734863,-0.03302321210503578,0.006657905410975218,-0.009321067482233047,36.012351989746094,,,,,,,,,,,,,,,,2779096485
-0.345218106842041,1.1718844291687012,9.751797513580321,-0.0013920076606072998,0.00559133995970993,-0.002490754681893158,27.899999618530273,39432,,,,-0.3517089784145355,1.244140625,10.058398246765137,-0.034354791045188904,0.004527375567704439,-0.008255803026258945,36.012351989746094,,,,,,,,,,,,,,,,2779096485
-0.3420202392578125,1.1697659133911134,9.751973368072509,-0.00021629528434707643,0.006922840600766449,-0.00303877330934082,28.0,39433,,,,-0.2942871153354645,1.263281226158142,10.046435356140137,-0.03781690448522568,0.0037284272257238626,-0.008255803026258945,35.918235778808594,,,,,,,,,,,,,,,,2779096485
-0.34675638504028317,1.173237656402588,9.748620394134521,-0.0015299061409039306,0.0070823106857444765,-0.0042124816568945315,28.0,39434,-8.699999809265137,5.699999809265137,-71.8499984741211,-0.40673828125,1.287207007408142,10.0966796875,-0.03621900454163551,0.005858956836163998,-0.012516862712800503,35.918235778808594,,,,,,,,,,,,,,,,2779096485
-0.3415586585998535,1.1759330825805663,9.748717704772949,-0.0024241223918772888,0.007424853120699158,-0.0018578877426986694,28.0,39435,,,,-0.35888671875,1.33984375,10.125391006469727,-0.036751639097929,0.0037284272257238626,-0.011185280978679657,36.012351989746094,,,,,,,,,,,,,,,,2779096485
-0.3390653305053711,1.1718996444702148,9.749697203826903,-0.004080608578522797,0.00689352585526886,-0.0008541223610377503,28.0,39436,,,,-0.299072265625,1.31591796875,10.075146675109863,-0.037550587207078934,0.006657905410975218,-0.009321067482233047,35.82411575317383,,,,,,,,,,,,,,,,2779096485
-0.3427382743835449,1.1773703865051268,9.756335897827148,-0.001983362576595459,0.005895466296204224,-0.0024879650206704714,28.0,39437,,,,-0.3421386778354645,1.284814476966858,10.089502334594727,-0.03621900454163551,0.0050600082613527775,-0.009321067482233047,35.918235778808594,,,,,,,,,,,,,,,,2779096485
-0.3444938285827637,1.173107186126709,9.749421160125731,-0.001375269693271179,0.006794336421150513,-0.002312116495101013,28.0,39438,-8.550000190734863,5.400000095367432,-73.19999694824219,-0.322998046875,1.2465331554412842,10.082324028015137,-0.03621900454163551,0.0026631623040884733,-0.010386332869529724,35.918235778808594,,,,,,,,,,,,,,,,2779096485
-0.3425983085632324,1.168425658416748,9.753131824493408,-0.0023365842874479674,0.007418867666190338,-0.0025826403967721557,28.0,39439,,,,-0.39716798067092896,1.26806640625,10.146924018859863,-0.03808322176337242,0.005326324608176947,-0.009321067482233047,35.918235778808594,,,,,,,,,,,,,,,,2779096485
-0.3426914695739746,1.1704798736572266,9.749757205200195,-0.0022465294958058167,0.00634739141427948,-0.002035846823417511,28.0,39440,,,,-0.3875976502895355,1.2465331554412842,10.070361137390137,-0.03648532181978226,0.0050600082613527775,-0.007190538104623556,35.918235778808594,,,,,,,,,,,,,,,,2779096485
-0.3452695472717285,1.1719046913146973,9.753902458953856,-0.0019870910020959474,0.006985990807680969,-0.0007711715515545654,28.0,39441,,,,-0.346923828125,1.2919921875,10.101465225219727,-0.03595269098877907,0.007723170332610607,-0.009054751135408878,35.918235778808594,,,,,,,,,,,,,,,,2779096485
-0.34591999206542967,1.172073031616211,9.758272914123534,-0.001288736932146454,0.007147058789302063,-0.0030381208348782347,28.0,39442,-8.850000381469727,5.699999809265137,-72.44999694824219,-0.3660644590854645,1.2584960460662842,10.082324028015137,-0.03621900454163551,0.004793691914528608,-0.011984230019152164,35.918235778808594,,,,,,,,,,,,,,,,2779096485
-0.34674401092529294,1.1668545196533202,9.761422705841063,-0.003120685486006012,0.0068891449553057866,-0.0014913568843899535,28.0,39443,,,,-0.35649412870407104,1.244140625,10.077539443969727,-0.03861585259437561,0.0034621108788996935,-0.012783179059624672,35.82411575317383,,,,,,,,,,,,,,,,2779096485
-0.3497913703918457,1.1659153579711914,9.7627618019104,-0.000676782465268097,0.006699274886693421,-0.0030386800987033083,28.0,39444,,,,-0.29667967557907104,1.2943847179412842,10.075146675109863,-0.037550587207078934,0.006924221757799387,-0.008255803026258945,35.82411575317383,,,,,,,,,,,,,,,,2779096485
-0.3476839576721191,1.1695872177124023,9.756628128814697,-0.0029492311762049864,0.00804979715570511,-0.0021299363040834045,28.0,39445,,,,-0.3517089784145355,1.2345702648162842,10.087109565734863,-0.03808322176337242,0.007989486679434776,-0.011185280978679657,35.918235778808594,,,,,,,,,,,,,,,,2779096485
-0.3448105087280273,1.1699671516418457,9.758166967773438,-0.0023288145150210573,0.006440428946322021,-0.002669332947561188,28.0,39446,-8.399999618530273,4.949999809265137,-72.9000015258789,-0.40434569120407104,1.2776367664337158,10.106249809265137,-0.037017956376075745,0.0037284272257238626,-0.009054751135408878,36.012351989746094,,,,,,,,,,,,,,,,2779096485
-0.3483825157165527,1.1674854499816893,9.756492050933838,-0.0007400924618469238,0.006760421064901428,-0.000953531505944519,28.0,39447,,,,-0.3277831971645355,1.2704589366912842,10.154101371765137,-0.03808322176337242,0.0050600082613527775,-0.008522119373083115,35.918235778808594,,,,,,,,,,,,,,,,2779096485
-0.3461441841125488,1.1718154930114746,9.75396234817505,-0.0009319998486791993,0.006168959622470398,-0.003126031781857605,28.0,39448,,,,-0.33735352754592896,1.260888695716858,10.079931259155273,-0.03408847749233246,0.002396845957264304,-0.009587383829057217,35.82411575317383,,,,,,,,,,,,,,,,2779096485
-0.34508124389648437,1.1701808013916015,9.758437628173828,-0.001286619719094391,0.0062586415715625,-0.0020388695112339783,27.899999618530273,39449,-8.850000381469727,5.099999904632568,-71.8499984741211,-0.370849609375,1.227392554283142,10.125391006469727,-0.03621900454163551,0.006125273182988167,-0.008255803026258945,35.918235778808594,,,,,,,,,,,,,,,,2779096485
-0.3488580780029297,1.1737803604125976,9.752526427459717,-0.0016393354293432617,0.00760268570126709,-0.002132919044483795,27.899999618530273,39450,,,,-0.346923828125,1.225000023841858,9.986620903015137,-0.03861585259437561,0.006924221757799387,-0.009054751135408878,36.012351989746094,,,,,,,,,,,,,,,,2779096485
-0.34791738357543944,1.1733717903137206,9.755466831207276,-0.0012990300496888733,0.005163336685961914,-0.0011307515594659425,27.899999618530273,39451,,,,-0.36845701932907104,1.2417480945587158,10.139745712280273,-0.037017956376075745,0.0055926404893398285,-0.009321067482233047,36.012351989746094,,,,,,,,,,,,,,,,2779096485
-0.34303869247436525,1.1679494232177734,9.759915755462647,-0.00045844986270111084,0.006165417618244934,-0.0037661158875566102,27.80000114440918,39452,,,,-0.29667967557907104,1.227392554283142,10.034472465515137,-0.03808322176337242,0.0055926404893398285,-0.014114759862422943,36.012351989746094,,,,,,,,,,,,,,,,2779096485
-0.3480126007080078,1.168448649597168,9.76138857421875,-0.002040427460460968,0.008150764249838868,-0.0010513028067921449,27.80000114440918,39453,-7.949999809265137,5.400000095367432,-72.5999984741211,-0.3636718690395355,1.2297852039337158,10.032079696655273,-0.035686373710632324,0.005858956836163998,-0.010918965563178062,35.918235778808594,,,,,,,,,,,,,,,,2779096485
-0.3431350311279297,1.1701002014160156,9.754905061340331,-0.0031576168721688842,0.007543064182772675,-0.001677824764733124,27.899999618530273,39454,,,,-0.31103515625,1.2895996570587158,10.094286918640137,-0.03808322176337242,0.003994743339717388,-0.011185280978679657,35.918235778808594,,,,,,,,,,,,,,,,2779096485
-0.3431816864013672,1.1700234146118165,9.758075302124023,-0.001986172211526184,0.006882666815998688,-0.0024008596799153137,28.0,39455,,,,-0.3756347596645355,1.2919921875,10.103857040405273,-0.034354791045188904,0.004261059686541557,-0.0050600082613527775,35.918235778808594,,,,,,,,,,,,,,,,2779096485
-0.3463441886901855,1.170463237762451,9.749380112457276,-0.0012891430642099,0.0071554011413594056,-0.0020420053833959963,28.0,39456,,,,-0.40434569120407104,1.239355444908142,10.127782821655273,-0.035153742879629135,0.006924221757799387,-0.010652649216353893,35.918235778808594,,,,,,,,,,,,,,,,2779096485
-0.34497473678588864,1.1753928085327148,9.757816455078125,-0.0022490328672132875,0.005441696939086762,-0.0020331037675135805,28.0,39457,-7.800000190734863,5.25,-72.9000015258789,-0.3780273497104645,1.256103515625,10.063183784484863,-0.037550587207078934,0.004793691914528608,-0.006657905410975218,35.918235778808594,,,,,,,,,,,,,,,,2779096485
-0.3431952194213867,1.1725187240600585,9.751589434051514,-0.001748991086473694,0.006657429968353119,-0.0025842715829286194,27.899999618530273,39458,,,,-0.3756347596645355,1.2297852039337158,10.127782821655273,-0.036751639097929,0.002929478418081999,-0.014647392556071281,36.012351989746094,,,,,,,,,,,,,,,,2779096485
-0.3392581199645996,1.1756975257873534,9.754790479278563,-0.0013605024651281738,0.005595114990529175,-0.0011375093306855773,27.899999618530273,39459,,,,-0.33735352754592896,1.2297852039337158,10.063183784484863,-0.03861585259437561,0.003195794764906168,-0.009321067482233047,35.918235778808594,,,,,,,,,,,,,,,,2779096485
-0.34702958755493163,1.1756220474243164,9.749520825958252,-0.002321950217358551,0.006560158010206451,-0.0035826240897111512,27.899999618530273,39460,,,,-0.3756347596645355,1.2776367664337158,10.130175590515137,-0.03781690448522568,0.003994743339717388,-0.004261059686541557,35.918235778808594,,,,,,,,,,,,,,,,2779096485
-0.34165402526855465,1.173240460205078,9.754847415161132,-0.0016503409424723815,0.00663325512372406,-0.00041797647231277464,27.80000114440918,39461,-7.800000190734863,5.550000190734863,-72.1500015258789,-0.39238280057907104,1.3494141101837158,10.0009765625,-0.03648532181978226,0.003195794764906168,-0.014647392556071281,36.012351989746094,,,,,,,,,,,,,,,,2779096485
-0.345053579711914,1.1694533081054688,9.751827046966552,-0.002586189058900299,0.005571526041335907,-0.0027636687706262208,27.80000114440918,39462,,,,-0.36127930879592896,1.311132788658142,10.044042587280273,-0.03595269098877907,0.0037284272257238626,-0.008788435719907284,35.82411575317383,,,,,,,,,,,,,,,,2779096485
-0.3425182693481445,1.169903561401367,9.751198097991944,-0.0017150224670031738,0.007652034075927124,-0.0017774003572068786,27.80000114440918,39463,,,,-0.3349609375,1.260888695716858,10.079931259155273,-0.03621900454163551,0.0037284272257238626,-0.010918965563178062,35.918235778808594,,,,,,,,,,,,,,,,2779096485
-0.3473106781005859,1.170986988067627,9.74915177078247,-0.0013906361326553344,0.0068596837359492496,-0.0020419787517852784,28.100000381469727,39464,,,,-0.34453123807907104,1.299169898033142,10.113428115844727,-0.03488742560148239,0.006657905410975218,-0.011185280978679657,35.918235778808594,,,,,,,,,,,,,,,,2779096485
-0.3455699279785156,1.1754540435791014,9.75009175491333,-0.0031233952523965452,0.00787406847238388,-0.001675920604566803,28.100000381469727,39465,-9.300000190734863,4.949999809265137,-72.0,-0.36127930879592896,1.2824218273162842,10.111035346984863,-0.03648532181978226,0.0034621108788996935,-0.010386332869529724,35.82411575317383,,,,,,,,,,,,,,,,2779096485
-0.34265991744995117,1.171173272705078,9.759655749511719,-0.0017274660871110534,0.0076207951965551754,4.072639069015503e-05,28.100000381469727,39466,,,,-0.3158203065395355,1.272851586341858,10.044042587280273,-0.03462110832333565,0.0050600082613527775,-0.008255803026258945,35.918235778808594,,,,,,,,,,,,,,,,2779096485
-0.34632157135009767,1.1705562118530273,9.75695740737915,-0.0017244234255865479,0.006713422929887238,-0.0012239222495620727,28.100000381469727,39467,,,,-0.3660644590854645,1.2656738758087158,10.010546684265137,-0.03834953531622887,0.005858956836163998,-0.010918965563178062,36.012351989746094,,,,,,,,,,,,,,,,2779096485
-0.3430798149108887,1.1751193069458008,9.755788296508788,-0.0006786466780183411,0.0069910508137173465,-0.0003229415694664001,28.100000381469727,39468,,,,-0.35649412870407104,1.1867187023162842,10.070361137390137,-0.035153742879629135,0.0055926404893398285,-0.007989486679434776,35.82411575317383,,,,,,,,,,,,,,,,2779096485
-0.3393481407165527,1.1709884460449218,9.757239469909667,-0.0023366242348640443,0.007419626667095795,-0.0024920862624290465,28.100000381469727,39469,-7.650000095367432,5.550000190734863,-72.0,-0.322998046875,1.327880859375,10.115819931030273,-0.03488742560148239,0.006391589529812336,-0.007989486679434776,35.918235778808594,,,,,,,,,,,,,,,,2779096485
-0.3428531181335449,1.17256612701416,9.754528005981445,-0.002265950597921753,0.007677134369028626,-0.0006834270521421814,28.100000381469727,39470,,,,-0.36845701932907104,1.251318335533142,10.132568359375,-0.037017956376075745,0.005326324608176947,-0.010120016522705555,35.918235778808594,,,,,,,,,,,,,,,,2779096485
-0.34244275360107423,1.1716329841613768,9.750623916625976,-0.000848336643609314,0.007168803499453125,-0.0014997658154740905,28.0,39471,,,,-0.3182128965854645,1.320703148841858,9.979443550109863,-0.03728426992893219,0.004261059686541557,-0.009054751135408878,35.918235778808594,,,,,,,,,,,,,,,,2779096485
-0.3497118171691894,1.1695730117797851,9.753477327728271,-0.001349257267502594,0.006306145707180328,-0.0015837286261645507,28.0,39472,,,,-0.35888671875,1.2537109851837158,10.106249809265137,-0.035153742879629135,0.004527375567704439,-0.009853700175881386,35.918235778808594,,,,,,,,,,,,,,,,2779096485
-0.3491132987976074,1.1720554985046385,9.749453684234618,-0.00040400153458862307,0.00610051638292572,-0.0016782242388938904,28.0,39473,-9.0,5.25,-72.9000015258789,-0.3875976502895355,1.239355444908142,10.075146675109863,-0.03728426992893219,0.004261059686541557,-0.009321067482233047,35.82411575317383,,,,,,,,,,,,,,,,2779096485
-0.34348027267456055,1.1661408584594726,9.754701131439209,-0.002712629288685608,0.008005442208054657,-0.00213285912335968,27.80000114440918,39474,,,,-0.3182128965854645,1.303955078125,10.067968368530273,-0.03648532181978226,0.004793691914528608,-0.008255803026258945,35.918235778808594,,,,,,,,,,,,,,,,2779096485
-0.344040397644043,1.170012274169922,9.754547707366942,-0.0014009625397111512,0.007014959342239228,-0.002767849933508911,27.80000114440918,39475,,,,-0.43305665254592896,1.287207007408142,10.048828125,-0.03462110832333565,0.005326324608176947,-0.011984230019152164,35.918235778808594,,,,,,,,,,,,,,,,2779096485
-0.3414017578125,1.1669346710205077,9.752233261871337,-0.0015722637177505493,0.007652966182302246,-0.0025879267714996337,27.899999618530273,39476,,,,-0.4019531309604645,1.2704589366912842,10.075146675109863,-0.037017956376075745,0.0050600082613527775,-0.013582127168774605,36.012351989746094,,,,,,,,,,,,,,,,2779096485
-0.3440017799377441,1.1721782302856445,9.751631565856933,-0.0016819792960050964,0.00777252879861969,-0.0020387097215696717,28.100000381469727,39477,-9.149999618530273,5.400000095367432,-72.75,-0.32539063692092896,1.260888695716858,10.070361137390137,-0.03648532181978226,0.003994743339717388,-0.008255803026258945,35.82411575317383,,,,,,,,,,,,,,,,2779096485
-0.34342688827514645,1.1714094650268554,9.752842434692383,-0.00289656050810791,0.007236907185961151,-0.002666063917345581,28.100000381469727,39478,,,,-0.4115234315395355,1.2417480945587158,10.056005477905273,-0.03648532181978226,0.006391589529812336,-0.011185280978679657,35.918235778808594,,,,,,,,,,,,,,,,2779096485
-0.3446480751037598,1.1697180618286132,9.750101736450196,-0.0011528691121670531,0.007430838575207977,-0.0011333148519975282,28.100000381469727,39479,,,,-0.2942871153354645,1.2776367664337158,10.082324028015137,-0.03781690448522568,0.004261059686541557,-0.012250546365976334,35.918235778808594,,,,,,,,,,,,,,,,2779096485
-0.3443054878234863,1.1709543518066405,9.75493665084839,-0.0017326792249090577,0.006319268433361511,-0.0033062412336820985,27.899999618530273,39480,,,,-0.3349609375,1.303955078125,10.077539443969727,-0.03595269098877907,0.005858956836163998,-0.011185280978679657,35.918235778808594,,,,,,,,,,,,,,,,2779096485
-0.3452072654724121,1.1693079216003417,9.748544429779052,-0.0031464582272781373,0.00719565482095932,-0.00240018723174469,27.80000114440918,39481,-8.550000190734863,5.400000095367432,-72.75,-0.40434569120407104,1.239355444908142,10.127782821655273,-0.03542005643248558,0.0018642136128619313,-0.008522119373083115,35.918235778808594,,,,,,,,,,,,,,,,2779096485
-0.3453614372253418,1.172058489227295,9.754385161590577,-0.002101034348551941,0.0076496039414491275,-0.0018620622476786803,27.80000114440918,39482,,,,-0.3349609375,1.256103515625,10.122998237609863,-0.03542005643248558,0.005326324608176947,-0.011185280978679657,35.918235778808594,,,,,,,,,,,,,,,,2779096485
-0.3519142974853515,1.1736406936645507,9.759691563415528,-0.002408716005077057,0.005553696177960358,-0.0024843630953208925,28.0,39483,,,,-0.3517089784145355,1.232177734375,10.051220893859863,-0.03808322176337242,0.004793691914528608,-0.009321067482233047,36.012351989746094,,,,,,,,,,,,,,,,2779096485
-0.34332808227539063,1.1704177040100097,9.757982627105713,-0.0012668324323310853,0.007841338222811738,-0.00032159001522247315,28.0,39484,,,,-0.27275389432907104,1.2297852039337158,10.048828125,-0.03621900454163551,0.0034621108788996935,-0.014114759862422943,35.918235778808594,,,,,,,,,,,,,,,,2779096485
-0.3459651519775391,1.171696499633789,9.752500183868408,-0.002574504439697876,0.007651614628058319,-0.0014030797527632142,28.0,39485,-9.149999618530273,5.400000095367432,-72.1500015258789,-0.3349609375,1.3135254383087158,10.106249809265137,-0.038882169872522354,0.002396845957264304,-0.009321067482233047,35.918235778808594,,,,,,,,,,,,,,,,2779096485
-0.3476999580383301,1.1699449081420898,9.750747134399413,-0.001024697827685089,0.006251737326483917,-0.002854762195086365,27.899999618530273,39486,,,,-0.30864256620407104,1.2465331554412842,10.046435356140137,-0.03808322176337242,0.002396845957264304,-0.011185280978679657,35.918235778808594,,,,,,,,,,,,,,,,2779096485
-0.3439372924804687,1.1704632751464843,9.748013352203369,-0.0018360831114234925,0.006231717013126831,0.00013427658123901367,27.80000114440918,39487,,,,-0.4019531309604645,1.244140625,10.029687881469727,-0.037550587207078934,0.0055926404893398285,-0.011451597325503826,35.918235778808594,,,,,,,,,,,,,,,,2779096485
-0.3446761878967285,1.166895492553711,9.757590879821777,-0.002360086683906403,0.006749548709825897,-0.002220237438124695,27.80000114440918,39488,,,,-0.3182128965854645,1.2776367664337158,10.063183784484863,-0.03462110832333565,0.0037284272257238626,-0.007723170332610607,35.918235778808594,,,,,,,,,,,,,,,,2779096485
-0.3474680648803711,1.1754560623168946,9.751584648895264,-0.001992224245061798,0.005344704612852631,-0.0018529875263265992,27.899999618530273,39489,-9.300000190734863,4.949999809265137,-71.8499984741211,-0.38041990995407104,1.33984375,10.094286918640137,-0.038882169872522354,0.0050600082613527775,-0.010652649216353893,35.918235778808594,,,,,,,,,,,,,,,,2779096485
-0.3445325958251953,1.1698761589050293,9.749246838378905,-0.002571608252032318,0.006747271707109528,-0.0023054985398376464,28.0,39490,,,,-0.3636718690395355,1.3063476085662842,10.139745712280273,-0.036751639097929,0.004261059686541557,-0.012516862712800503,35.918235778808594,,,,,,,,,,,,,,,,2779096485
-0.343018953704834,1.169283322906494,9.75158670501709,-0.0018715830485102843,0.005522057824427643,0.0012281500177635193,28.0,39491,,,,-0.370849609375,1.26806640625,10.063183784484863,-0.03834953531622887,0.0055926404893398285,-0.011451597325503826,35.918235778808594,,,,,,,,,,,,,,,,2779096485
-0.3483030372619629,1.1694578689575195,9.750592177581787,-0.0009210742303822326,0.0073746791661068725,-0.0014988736565150452,28.0,39492,-8.25,4.800000190734863,-72.0,-0.36845701932907104,1.320703148841858,10.087109565734863,-0.03808322176337242,0.0034621108788996935,-0.010120016522705555,35.918235778808594,,,,,,,,,,,,,,,,2779096485
-0.3469783340454101,1.1694546913146973,9.751580499267577,0.00042941474911605833,0.007474214811164551,-0.0016891232255801393,27.80000114440918,39493,,,,-0.3780273497104645,1.275244116783142,10.07275390625,-0.035686373710632324,0.004793691914528608,-0.010386332869529724,36.012351989746094,,,,,,,,,,,,,,,,2779096485
-0.34870730819702145,1.1693190620422362,9.748731649017333,-0.0021000489789553835,0.007544761947955933,-0.0036728653026283265,27.80000114440918,39494,,,,-0.3182128965854645,1.3135254383087158,10.048828125,-0.03648532181978226,0.0010652649216353893,-0.008255803026258945,35.918235778808594,,,,,,,,,,,,,,,,2779096485
-0.34371145553588867,1.1754540809631346,9.757224291992188,-0.0014013553559692382,0.007192039579804382,-0.0030401448372927857,27.80000114440918,39495,,,,-0.3517089784145355,1.2537109851837158,10.115819931030273,-0.03595269098877907,0.006657905410975218,-0.011185280978679657,36.012351989746094,,,,,,,,,,,,,,,,2779096485
-0.3460902015686035,1.1739959541320801,9.74961009902954,-0.002161974131776886,0.005529947439102783,-0.0022148312211489867,28.0,39496,-9.300000190734863,5.400000095367432,-72.44999694824219,-0.3277831971645355,1.299169898033142,10.106249809265137,-0.037550587207078934,0.004527375567704439,-0.010918965563178062,35.918235778808594,,,,,,,,,,,,,,,,2779096485
-0.34309641342163083,1.1672230140686035,9.749381981658935,0.0005441037806721496,0.006879810575749206,-0.003043553683464661,28.0,39497,,,,-0.34453123807907104,1.244140625,10.189990043640137,-0.038882169872522354,0.0018642136128619313,-0.010120016522705555,35.918235778808594,,,,,,,,,,,,,,,,2779096485
-0.34163682861328126,1.1705089210510253,9.74919016418457,-0.0006839530264538574,0.009296848959175567,-0.0034100113048439024,28.0,39498,,,,-0.3517089784145355,1.296777367591858,10.0966796875,-0.034354791045188904,0.003994743339717388,-0.007723170332610607,35.82411575317383,,,,,,,,,,,,,,,,2779096485
-0.3387260704040527,1.1716737327575684,9.753354558563233,-0.0010499778841589356,0.007846471465777587,-0.0009603758298989868,28.0,39499,,,,-0.36127930879592896,1.323095679283142,10.103857040405273,-0.038882169872522354,0.001597897382453084,-0.010120016522705555,35.82411575317383,,,,,,,,,,,,,,,,2779096485
-0.33958179092407226,1.1748646095275879,9.756348571014405,-0.00035340147422485355,0.006917960358102417,-0.0037672943363308716,27.899999618530273,39500,-8.550000190734863,4.949999809265137,-72.5999984741211,-0.346923828125,1.296777367591858,9.965087890625,-0.036751639097929,0.0050600082613527775,-0.010652649216353893,35.918235778808594,,,,,,,,,,,,,,,,2779096485
-0.34436567611694335,1.1752381134033203,9.750509521484375,-0.0025345503657185366,0.0065798853758456425,-0.0010417753480578614,27.899999618530273,39501,,,,-0.33735352754592896,1.26806640625,10.0966796875,-0.03621900454163551,0.004793691914528608,-0.011984230019152164,36.012351989746094,,,,,,,,,,,,,,,,2779096485
-0.34271016159057616,1.1721171447753906,9.752146680450439,-0.0033060947598231505,0.007142438204842529,-0.0012208263248161316,28.0,39502,,,,-0.3397460877895355,1.232177734375,10.046435356140137,-0.03728426992893219,0.0055926404893398285,-0.013049494475126266,36.012351989746094,,,,,,,,,,,,,,,,2779096485
-0.34013223342895504,1.1747241577148437,9.752926025390625,-0.0005035704691596985,0.007063455505356293,-0.0024066520552464294,28.0,39503,,,,-0.35888671875,1.2656738758087158,10.070361137390137,-0.03621900454163551,0.007190538104623556,-0.009587383829057217,35.918235778808594,,,,,,,,,,,,,,,,2779096485
-0.34227422637939453,1.171302995300293,9.757248778533935,-0.001987237475954895,0.006989020153400116,-0.0004089483562794495,28.0,39504,-9.449999809265137,5.400000095367432,-73.05000305175781,-0.31342774629592896,1.296777367591858,10.041650772094727,-0.03595269098877907,0.0026631623040884733,-0.009587383829057217,35.82411575317383,,,,,,,,,,,,,,,,2779096485
-0.34652370681762695,1.1731471870422363,9.756465956878662,-0.0038106439406767273,0.007790618320199737,-0.0029401431390475466,28.100000381469727,39505,,,,-0.31103515625,1.31591796875,10.111035346984863,-0.038882169872522354,0.004527375567704439,-0.010120016522705555,35.918235778808594,,,,,,,,,,,,,,,,2779096485
-0.34639346084594724,1.1722478393554687,9.760111087036133,-0.003705748683962097,0.006746173153167419,-0.002301557061451416,28.100000381469727,39506,,,,-0.32539063692092896,1.287207007408142,10.118212699890137,-0.037550587207078934,0.004793691914528608,-0.008255803026258945,35.918235778808594,,,,,,,,,,,,,,,,2779096485
-0.34294534454345704,1.1705512397766114,9.754565464782715,-0.0016132897140612792,0.007198098271242676,-0.002129297145426178,28.100000381469727,39507,,,,-0.2679687440395355,1.296777367591858,10.058398246765137,-0.038882169872522354,0.006391589529812336,-0.011984230019152164,36.012351989746094,,,,,,,,,,,,,,,,2779096485
-0.3471622634887695,1.1738613716125488,9.752601793670655,-0.003341062064695587,0.006422166319272308,-0.001394744058608551,28.100000381469727,39508,-7.949999809265137,5.099999904632568,-72.5999984741211,-0.35649412870407104,1.3015625476837158,10.14453125,-0.035153742879629135,0.003994743339717388,-0.007989486679434776,35.82411575317383,,,,,,,,,,,,,,,,2779096485
-0.34475480651855467,1.1686597198486328,9.756127294921875,-0.002107838725090332,0.005728346281047516,-0.0008523380431196594,28.100000381469727,39509,,,,-0.34931641817092896,1.303955078125,10.108642578125,-0.035686373710632324,0.006391589529812336,-0.008522119373083115,35.918235778808594,,,,,,,,,,,,,,,,2779096485
-0.34221601943969726,1.17421607131958,9.750746760559082,-0.0018499248910940553,0.007243232193506623,-0.0020358201918067934,28.100000381469727,39510,,,,-0.3517089784145355,1.2895996570587158,10.046435356140137,-0.03968111798167229,0.0034621108788996935,-0.009587383829057217,35.918235778808594,,,,,,,,,,,,,,,,2779096485
-0.34334068069458007,1.1697621376037597,9.753367082214355,-0.0027204523243339537,0.006274147826902924,0.0001440170928590393,28.100000381469727,39511,,,,-0.3636718690395355,1.26806640625,9.996191024780273,-0.03941480070352554,0.0021305298432707787,-0.011451597325503826,36.012351989746094,,,,,,,,,,,,,,,,2779096485
-0.3457730728149414,1.172110041809082,9.755740893554687,-0.0026595791201358032,0.006931089742186279,-0.0017624866552049256,28.0,39512,-8.550000190734863,5.400000095367432,-72.75,-0.34931641817092896,1.2919921875,10.091894149780273,-0.03621900454163551,0.007456854451447725,-0.009853700175881386,36.012351989746094,,,,,,,,,,,,,,,,2779096485
-0.3411227607727051,1.1732227027893065,9.75540899810791,-0.003706920474833679,0.006939179093941803,-0.0006721751966139221,28.0,39513,,,,-0.2918945252895355,1.227392554283142,10.082324028015137,-0.035153742879629135,0.003195794764906168,-0.010120016522705555,35.918235778808594,,,,,,,,,,,,,,,,2779096485
-0.34235718154907224,1.1679984336853027,9.752409228515624,-0.0014329670778912354,0.00505059176198822,-0.0015790281468728638,28.0,39514,,,,-0.35649412870407104,1.2656738758087158,10.063183784484863,-0.03728426992893219,0.007190538104623556,-0.006924221757799387,36.012351989746094,,,,,,,,,,,,,,,,2779096485
-0.3426705718994141,1.1703945259094237,9.754706290435792,-0.002459728855406952,0.006717470934716339,-0.0004923585610475159,28.100000381469727,39515,,,,-0.3756347596645355,1.3015625476837158,10.14453125,-0.03648532181978226,0.0010652649216353893,-0.010386332869529724,36.012351989746094,,,,,,,,,,,,,,,,2779096485
-0.3420804649353027,1.171083289337158,9.749301232147216,-0.002023622914098053,0.0068045363280554196,-0.0008564126795594788,28.100000381469727,39516,-8.850000381469727,5.849999904632568,-71.55000305175781,-0.34931641817092896,1.263281226158142,10.07275390625,-0.03648532181978226,0.0026631623040884733,-0.014114759862422943,35.918235778808594,,,,,,,,,,,,,,,,2779096485
-0.3386957893371582,1.1694740562438966,9.752878173828124,-0.0032460205039465334,0.0070776901012849424,-0.0002192114457206726,28.100000381469727,39517,,,,-0.3301757872104645,1.296777367591858,10.063183784484863,-0.04101269692182541,0.006924221757799387,-0.010386332869529724,35.918235778808594,,,,,,,,,,,,,,,,2779096485
-0.3436831558227539,1.1722156517028808,9.757993169403075,-0.0011679026564172363,0.00585472658970871,-0.003031263195118408,28.100000381469727,39518,,,,-0.3780273497104645,1.3063476085662842,10.022509574890137,-0.03808322176337242,0.000798948691226542,-0.009054751135408878,35.918235778808594,,,,,,,,,,,,,,,,2779096485
-0.3370234519958496,1.169389493560791,9.758376393127442,-0.0006543453332383728,0.007044700193508301,0.0008563394426300049,28.0,39519,,,,-0.39716798067092896,1.239355444908142,9.991406440734863,-0.037550587207078934,0.003195794764906168,-0.009587383829057217,35.918235778808594,,,,,,,,,,,,,,,,2779096485
-0.34513328247070313,1.1718850646972656,9.758533443450927,-0.0019727631955297853,0.007192379132841034,-0.000680011548067627,28.0,39520,-7.949999809265137,6.0,-72.75,-0.3780273497104645,1.2919921875,10.134961128234863,-0.03808322176337242,0.0034621108788996935,-0.006924221757799387,35.918235778808594,,,,,,,,,,,,,,,,2779096485
-0.3462167091369629,1.169903187561035,9.752347694396972,-0.0008516323054356384,0.006706685132375641,-0.002132512912420349,28.0,39521,,,,-0.3660644590854645,1.275244116783142,10.017724990844727,-0.03648532181978226,0.0037284272257238626,-0.010386332869529724,36.012351989746094,,,,,,,,,,,,,,,,2779096485
-0.3414363006591797,1.1704829765319824,9.755845195007323,-0.0019010642415748596,0.007602432700965271,-0.0021320069118167116,28.0,39522,,,,-0.3517089784145355,1.299169898033142,10.125391006469727,-0.03728426992893219,0.0034621108788996935,-0.011717913672327995,35.918235778808594,,,,,,,,,,,,,,,,2779096485
-0.3414918159484863,1.1722825317382812,9.755321407318116,-0.0013769741163571166,0.007167451945209198,-0.0005928129966749573,28.0,39523,,,,-0.30146485567092896,1.26806640625,10.094286918640137,-0.03621900454163551,0.0050600082613527775,-0.011451597325503826,35.918235778808594,,,,,,,,,,,,,,,,2779096485
-0.34371257705688474,1.1711101684570313,9.761622747802734,-0.0014820025311253356,0.008211564217107545,-0.0012313791005630493,28.0,39524,-9.75,4.800000190734863,-72.44999694824219,-0.36127930879592896,1.303955078125,10.075146675109863,-0.036751639097929,0.007723170332610607,-0.011717913672327995,36.012351989746094,,,,,,,,,,,,,,,,2779096485
