adisAccelX,adisAccelY,adisAccelZ,adisGyroX,adisGyroY,adisGyroZ,adisTemp,adisDataCNT,lsmMagX,lsmMagY,lsmMagZ,mpuAccelX,mpuAccelY,mpuAccelZ,mpuGyroX,mpuGyroY,mpuGyroZ,mpuTemp,year,month,day,hour,min,sec,fixType,fLon,fLat,height,hMSL,hAcc,vAcc,gSpeed,headMot,padding
-0.08083392257305799,0.007422182629407324,9.815799073495118,-0.0004989743413960066,-0.00047469097295327247,0.0013858198724360522,21.5,25545,,,,-0.09930168837308884,0.001866951584815979,9.852704048156738,-0.0013298019766807556,-0.001559725496917963,0.0015987856313586235,30.271177291870117,,,,,,,,,,,,,,,,2779096485
-0.07947023684797795,0.0089134812414217,9.814787794654256,-0.0006434241979292096,-0.0016992124337564954,-0.00032738498713563366,21.399999618530273,25546,13.800000190734863,-18.149999618530273,-60.599998474121094,-0.12087259441614151,0.05949154123663902,9.748147010803223,1.776963472366333e-06,0.0035002827644348145,0.002131418325006962,30.177059173583984,,,,,,,,,,,,,,,,2779096485
-0.08103492416691092,0.008391908037901581,9.817104952168252,-0.0004726623100068466,-0.0002681495160315808,-0.0008762558261262649,21.399999618530273,25547,,,,-0.07773078233003616,0.033080268651247025,9.86220932006836,1.776963472366333e-06,0.0005708043463528156,0.0010661538690328598,30.177059173583984,,,,,,,,,,,,,,,,2779096485
-0.07938609056050112,0.012532755159053595,9.815742619424531,-0.00013990699199094682,-0.0003189692871837721,-0.0005087662298317091,21.700000762939453,25548,,,,-0.08971461653709412,-0.017341244965791702,9.852704048156738,0.0008007250726222992,-0.0010270928032696247,-0.000265427865087986,30.177059173583984,,,,,,,,,,,,,,,,2779096485
-0.0785429455076179,0.012596792924078679,9.813773676296941,0.001809333833372365,0.00019007397797842895,2.8613069134202735e-05,21.80000114440918,25549,,,,-0.08252431452274323,0.042684365063905716,9.843198776245117,1.776963472366333e-06,3.817211836576462e-05,0.0015987856313586235,30.177059173583984,,,,,,,,,,,,,,,,2779096485
-0.08023132899059389,0.01618171149666793,9.810146978628064,0.0011110197108389484,0.0001894015298078049,3.1043203612199496e-05,21.80000114440918,25550,13.649999618530273,-18.149999618530273,-60.150001525878906,-0.07054048031568527,0.023476172238588333,9.76478099822998,-0.0010634884238243103,0.0008371206931769848,0.0005335211753845215,30.177059173583984,,,,,,,,,,,,,,,,2779096485
-0.07830411359704946,0.011342467687717546,9.815165973411679,0.0024899512505838213,-0.0006613918798902231,-0.0009685077256526321,21.80000114440918,25551,,,,-0.05136634036898613,0.08590281009674072,9.86220932006836,-0.0010634884238243103,3.817211836576462e-05,-0.0015970086678862572,30.271177291870117,,,,,,,,,,,,,,,,2779096485
-0.07232337229109334,0.008141289721072534,9.810292130225829,0.0009104570505233966,0.00015438761961661298,0.0012972564509940966,21.700000762939453,25552,,,,-0.08971461653709412,0.0354812927544117,9.776662826538086,0.0031975731253623962,0.001103437040001154,0.0002672048285603523,30.177059173583984,,,,,,,,,,,,,,,,2779096485
-0.07572215709948153,0.014718899035820581,9.806539410333205,0.00021183666446672553,0.0004981617665669909,-0.00042184731035157597,21.700000762939453,25553,,,,-0.08012755215167999,0.052288468927145004,9.736265182495117,-0.00026454031467437744,0.0019023856148123741,-0.0007980605587363243,30.271177291870117,,,,,,,,,,,,,,,,2779096485
-0.07503945445701617,0.007534744048257602,9.81223170677534,-0.00025030167631879706,0.0005488816691789902,0.0003016669738235339,21.600000381469727,25554,13.5,-18.899999618530273,-60.29999923706055,-0.12326936423778534,0.011471051722764969,9.74339485168457,0.0008007250726222992,0.0024350183084607124,0.0007998375222086906,30.177059173583984,,,,,,,,,,,,,,,,2779096485
-0.0737005528228278,0.007727305944138632,9.816839831000234,-0.000539634153059367,-0.0004902904389312082,0.00048470603428679053,21.5,25555,,,,-0.11128553003072739,0.06669461727142334,9.888348579406738,1.776963472366333e-06,0.004565548151731491,-0.0015970086678862572,30.177059173583984,,,,,,,,,,,,,,,,2779096485
-0.07375471895812499,0.006495784582071312,9.812990829082526,-0.00157385278157606,0.00035994370694174705,-0.0005170686344729749,21.30000114440918,25563,13.5,-19.049999237060547,-60.75,-0.16161765158176422,0.02827822044491768,9.75052261352539,-0.00026454031467437744,-0.0004944605752825737,0.0005335211753845215,30.177059173583984,,,,,,,,,,,,,,,,2779096485
-0.07643267175344524,0.005121944614370313,9.808303422569224,-0.0008982154755688278,-0.001002462918352748,0.002742647175285173,21.200000762939453,25564,13.050000190734863,-18.75,-60.599998474121094,-0.05855664238333702,0.042684365063905716,9.878843307495117,0.0023986250162124634,3.817211836576462e-05,-0.0015970086678862572,30.177059173583984,,,,,,,,,,,,,,,,2779096485
-0.0772053522341855,0.005782322383878834,9.811635370957593,6.391804063753245e-05,-0.0013793468153279979,0.00047705610410811016,21.200000762939453,25565,,,,-0.14963380992412567,0.0786997377872467,9.817059516906738,0.0023986250162124634,-0.00022814422845840454,-0.0015970086678862572,30.271177291870117,,,,,,,,,,,,,,,,2779096485
-0.07726202294578695,0.003022455459919815,9.816221787826423,0.00032261750714998334,-0.0002150594000656994,0.00020044022148527703,21.200000762939453,25566,13.5,-18.0,-60.75,-0.12087259441614151,0.01867411658167839,9.788543701171875,0.0008007250726222992,0.001103437040001154,0.0010661538690328598,30.177059173583984,,,,,,,,,,,,,,,,2779096485
-0.07701410727339851,0.005957613148737337,9.812870224357278,-0.0007591119148872174,-0.00110219164258813,0.0014794699315251025,21.399999618530273,25567,,,,-0.07773078233003616,0.025877196341753006,9.812307357788086,0.0018659904599189758,0.0035002827644348145,0.0013324692845344543,30.177059173583984,,,,,,,,,,,,,,,,2779096485
-0.0757187927432519,0.00234981593505331,9.81428695625836,0.000250033052138692,-3.808568894341554e-05,-0.00024352204498536518,21.5,25568,,,,-0.10649199038743973,0.05709051713347435,9.802802085876465,0.0018659904599189758,0.0032339664176106453,-0.0005317442119121552,30.177059173583984,,,,,,,,,,,,,,,,2779096485
-0.07712804680437559,0.004791363203910996,9.814572551834505,0.0008581192775602921,0.0012063828482874192,-0.001698693228312544,21.5,25569,,,,-0.11607906222343445,0.033080268651247025,9.776662826538086,-0.0023950673639774323,0.0008371206931769848,0.0007998375222086906,30.271177291870117,,,,,,,,,,,,,,,,2779096485
-0.07627406104808575,0.005820677752773017,9.815312918388262,0.0006226692072044573,0.000548209221008367,0.00011754933312620717,21.600000381469727,25570,13.949999809265137,-16.950000762939453,-59.849998474121094,-0.08012755215167999,0.08590281009674072,9.82181167602539,0.0013333596289157867,0.0003044884651899338,0.0013324692845344543,30.177059173583984,,,,,,,,,,,,,,,,2779096485
-0.07986610943099871,0.008223308901729296,9.811469894399933,0.0005618692399357804,0.0003114874912407582,-0.0013278413911648698,21.700000762939453,25571,,,,-0.13045966625213623,0.0786997377872467,9.802802085876465,-0.0005308538675308228,-0.0026249901857227087,0.003196683246642351,30.177059173583984,,,,,,,,,,,,,,,,2779096485
-0.07673310876475194,0.007455566006037447,9.810239748619635,0.0019606080401519976,-0.0006603665628775891,0.0003004885250492723,21.700000762939453,25572,,,,-0.10888875275850296,0.011471051722764969,9.87171459197998,-0.003460332751274109,-0.003423938760533929,-0.0031949058175086975,30.177059173583984,,,,,,,,,,,,,,,,2779096485
-0.07924736693863237,0.005599517555523518,9.81973774435353,-0.00031479012167188536,0.0014023848452675526,0.0004822359523927171,21.700000762939453,25573,14.100000381469727,-18.450000762939453,-60.75,-0.11128553003072739,0.05468948557972908,9.82181167602539,0.0008007250726222992,0.001103437040001154,0.002131418325006962,30.177059173583984,,,,,,,,,,,,,,,,2779096485
-0.07635671206612718,0.006189315464922665,9.80631120287911,-0.000835611216674022,0.00032757298411429346,0.0007594510462567003,21.700000762939453,25574,,,,-0.11607906222343445,-0.029346367344260216,9.76478099822998,0.0002680942416191101,-0.0012934091500937939,0.0015987856313586235,30.271177291870117,,,,,,,,,,,,,,,,2779096485
-0.08208303327765089,0.004850129909468165,9.810979965725155,-0.0004860713260032455,0.00040473807616904153,-0.0007812675285986466,21.700000762939453,25575,,,,-0.08012755215167999,0.07389768958091736,9.81468391418457,-0.0015961192548274994,-0.0012934091500937939,0.002930366899818182,30.177059173583984,,,,,,,,,,,,,,,,2779096485
-0.07655191949091798,0.008187944204873645,9.809980119674234,-0.0009396342881376443,0.0010108402465921684,-0.00014936598529267714,21.700000762939453,25576,,,,-0.13764996826648712,0.03067924454808235,9.805177688598633,1.776963472366333e-06,0.0008371206931769848,-0.002662274055182934,30.177059173583984,,,,,,,,,,,,,,,,2779096485
-0.07609571278617903,0.007535342182665309,9.813309602166733,-0.0004455047249773969,-0.0010256324196772108,-0.00023763645901673722,21.5,25577,13.350000381469727,-17.850000381469727,-60.900001525878906,-0.08971461653709412,0.03067924454808235,9.824188232421875,1.776963472366333e-06,-0.001559725496917963,0.0034629995934665203,30.177059173583984,,,,,,,,,,,,,,,,2779096485
-0.07854963683834128,0.006391858728732298,9.811675609894733,-0.0009686960333334152,-0.0011219190082273206,-0.000959825820558638,21.5,25578,,,,-0.11368229240179062,-0.017341244965791702,9.793295860290527,-0.0023950673639774323,-0.0012934091500937939,0.0010661538690328598,30.177059173583984,,,,,,,,,,,,,,,,2779096485
-0.07691930719119447,0.0046710260377605325,9.814038012861728,-0.00027747257715360525,-0.0004961027879703626,-0.00024053264668229529,21.5,25579,,,,-0.1280628889799118,0.05468948557972908,9.876466751098633,0.004529153928160667,-0.0026249901857227087,0.0002672048285603523,30.08294105529785,,,,,,,,,,,,,,,,2779096485
-0.07979960732285954,0.010505266433930774,9.812981824826398,0.0004201690972091875,-0.0001433870777214916,-0.0010590818337037795,21.399999618530273,25580,,,,-0.07054048031568527,-0.007737148553133011,9.724383354187012,-0.0031940191984176636,0.0019023856148123741,8.884817361831665e-07,30.271177291870117,,,,,,,,,,,,,,,,2779096485
-0.07644534416191022,0.012204042918618362,9.811972712984936,0.0010360317529603778,-0.00021448016253258761,2.599651338118145e-05,21.399999618530273,25581,12.449999809265137,-18.149999618530273,-61.5,-0.08252431452274323,0.04748641327023506,9.812307357788086,-0.002661384642124176,0.0003044884651899338,0.0010661538690328598,30.177059173583984,,,,,,,,,,,,,,,,2779096485
-0.07525447420182595,0.012182285779538034,9.816631911143974,0.00025232337066042037,-0.0006767117139556229,-0.0015088897387269726,21.399999618530273,25582,,,,-0.11128553003072739,0.01867411658167839,9.798048973083496,0.004262836650013924,-0.0018260413780808449,0.002930366899818182,30.177059173583984,,,,,,,,,,,,,,,,2779096485
-0.0757635012993702,0.00988851509278435,9.811517717834976,0.0011791966342764482,0.0018987514637280939,0.0005590814651188524,21.30000114440918,25583,,,,-0.11128553003072739,0.061892565339803696,9.82656478881836,-0.0013298019766807556,0.0032339664176106453,0.0010661538690328598,30.177059173583984,,,,,,,,,,,,,,,,2779096485
-0.07601560372617776,0.010506799153350522,9.817431683370947,-0.00021709871565641324,0.0016365965457250118,0.0015608295022679001,21.30000114440918,25584,,,,-0.04177926853299141,0.08110074698925018,9.75052261352539,-0.0013298019766807556,-0.0023586738388985395,0.002131418325006962,30.271177291870117,,,,,,,,,,,,,,,,2779096485
-0.07436381696263304,0.00968556061156942,9.815551661942889,-0.00090955388383192,-0.000259474268840266,0.00021174534023497187,21.30000114440918,25585,13.649999618530273,-18.149999618530273,-60.900001525878906,-0.09450815618038177,0.05949154123663902,9.705373764038086,-0.0005308538675308228,0.001636069267988205,0.0015987856313586235,30.271177291870117,,,,,,,,,,,,,,,,2779096485
-0.07088226899099574,0.011900190639503429,9.814565191508956,-0.0007783865431442061,0.00018740415900397184,0.0011192108175404223,21.399999618530273,25586,,,,-0.10888875275850296,0.05709051713347435,9.769533157348633,-0.0005308538675308228,-0.0010270928032696247,0.0007998375222086906,30.177059173583984,,,,,,,,,,,,,,,,2779096485
-0.07182324204668966,0.008481927266261418,9.816713472517957,-7.607767900312317e-05,0.0007254359324324689,-6.172801232316423e-05,21.399999618530273,25587,,,,-0.12326936423778534,0.013872075825929642,9.824188232421875,-0.002128753811120987,0.0008371206931769848,0.003729315474629402,30.177059173583984,,,,,,,,,,,,,,,,2779096485
-0.07386824729000732,0.01132609375830658,9.815874694301778,9.784005478929601e-05,0.0008236666285649777,0.0009333022010223253,21.399999618530273,25588,,,,-0.11128553003072739,0.0354812927544117,9.752899169921875,1.776963472366333e-06,0.001636069267988205,0.0018651019781827927,30.271177291870117,,,,,,,,,,,,,,,,2779096485
-0.06792148598197055,0.009051874590004803,9.807226573315473,0.0002182082773309526,0.0003135780726821035,-0.002141104203458876,21.600000381469727,25589,12.75,-18.450000762939453,-60.900001525878906,-0.1280628889799118,0.02827822044491768,9.809930801391602,-0.0005308538675308228,0.0003044884651899338,-0.001330692321062088,30.177059173583984,,,,,,,,,,,,,,,,2779096485
-0.07411081737416424,0.010876745284517028,9.813092565968168,-0.0015689858547173869,0.00013033261723578368,-0.0013153245341275162,21.700000762939453,25590,,,,-0.09211138635873795,0.023476172238588333,9.817059516906738,-0.002128753811120987,-0.0010270928032696247,8.884817361831665e-07,30.177059173583984,,,,,,,,,,,,,,,,2779096485
-0.07264444402060848,0.009173931392577423,9.810821625320694,0.00026103190736513236,0.001039862044371862,-5.72738754306165e-05,21.700000762939453,25591,,,,-0.11128553003072739,0.02107514813542366,9.81468391418457,0.0029312558472156525,0.0008371206931769848,0.0018651019781827927,30.177059173583984,,,,,,,,,,,,,,,,2779096485
-0.0725680357524598,0.005607181152622258,9.811490144635709,-0.00037760077554975426,-0.0002531892087108715,0.002029292850598894,21.700000762939453,25592,,,,-0.08492108434438705,0.052288468927145004,9.70775032043457,-0.0007971711456775665,-0.003423938760533929,8.884817361831665e-07,30.271177291870117,,,,,,,,,,,,,,,,2779096485
-0.07037955940681602,0.012524867261551966,9.810052602067973,-0.00173305655044691,0.00026995549432639026,-0.0006881634175293105,21.5,25593,13.350000381469727,-18.0,-60.29999923706055,-0.10169845074415207,0.052288468927145004,9.788543701171875,0.0005344115197658539,0.004032915458083153,0.002664050552994013,30.08294105529785,,,,,,,,,,,,,,,,2779096485
-0.07265928456975476,0.009238193458005396,9.818917721890783,0.0005332336005114948,0.0010992971415912526,0.0016551653253329332,21.5,25594,,,,-0.05855664238333702,0.11951716244220734,9.78616714477539,-0.005058232694864273,-0.0004944605752825737,0.00532721308991313,30.271177291870117,,,,,,,,,,,,,,,,2779096485
-0.0749751204895583,0.00814214953928361,9.81264975084932,-0.0004194789834034529,0.0006344623502205554,-0.0012368212036341993,21.600000381469727,25595,,,,-0.11607906222343445,0.042684365063905716,9.833693504333496,0.0008007250726222992,0.0003044884651899338,-0.0007980605587363243,30.177059173583984,,,,,,,,,,,,,,,,2779096485
-0.07327249456521016,0.00925538982222696,9.814666629498127,-0.0011852909233010665,0.0007606495797040447,-0.0010517181933403152,21.700000762939453,25596,,,,-0.05136634036898613,0.01867411658167839,9.736265182495117,-0.0018624365329742432,-0.0007607764564454556,-0.001330692321062088,30.177059173583984,,,,,,,,,,,,,,,,2779096485
-0.07565187943601798,0.007113620041831704,9.819054765921825,0.0003840499751732074,0.0010540566928844341,0.0016580948025118883,21.700000762939453,25597,13.800000190734863,-18.600000381469727,-61.349998474121094,-0.08971461653709412,0.05709051713347435,9.75527572631836,0.0005344115197658539,0.0019023856148123741,0.002131418325006962,30.177059173583984,,,,,,,,,,,,,,,,2779096485
-0.07339738694480151,0.0065961590123645684,9.817059930887607,-0.0002406077700175275,0.0006587237475844466,0.0005737887721377428,21.700000762939453,25598,,,,-0.19277560710906982,0.001866951584815979,9.783791542053223,0.0002680942416191101,0.001636069267988205,-0.000265427865087986,30.08294105529785,,,,,,,,,,,,,,,,2779096485
-0.07848014419133131,0.008085551070954378,9.823000012502558,-9.751652510508416e-06,-0.0009263963802401071,0.0008470224401994188,21.5,25599,,,,-0.12566612660884857,0.01867411658167839,9.771909713745117,0.0018659904599189758,0.0005708043463528156,0.002131418325006962,30.177059173583984,,,,,,,,,,,,,,,,2779096485
-0.07656750767478197,0.006695860541449156,9.818116529905582,0.0005071213062027178,0.0014127645155448043,0.0015613488186768968,21.5,25600,13.649999618530273,-19.049999237060547,-61.349998474121094,-0.13764996826648712,0.04988744482398033,9.77903938293457,-0.0031940191984176636,-0.0010270928032696247,-0.003727538511157036,30.177059173583984,,,,,,,,,,,,,,,,2779096485
-0.07999997342720243,0.007462033334320774,9.819969800099663,-0.00010027915524289969,0.0019571146386160943,0.0012903788375262315,21.600000381469727,25601,,,,-0.09211138635873795,0.04028334096074104,9.793295860290527,-0.0005308538675308228,-0.0012934091500937939,-0.001330692321062088,30.177059173583984,,,,,,,,,,,,,,,,2779096485
-0.0734448617493753,0.0012936974880459378,9.81696488181046,-0.0004863709316238205,0.00041080342551001476,-5.694098029664432e-05,21.700000762939453,25602,,,,-0.14963380992412567,-0.02454431913793087,9.738641738891602,-0.0013298019766807556,-0.0023586738388985395,0.003729315474629402,30.271177291870117,,,,,,,,,,,,,,,,2779096485
-0.0729426007460262,0.006746701966104213,9.816966936723684,-0.00022050090392560862,-0.0010236150751653395,3.771442209700177e-05,21.700000762939453,25603,,,,-0.10888875275850296,0.05468948557972908,9.802802085876465,0.0008007250726222992,-0.002092357724905014,-0.0018633250147104263,30.08294105529785,,,,,,,,,,,,,,,,2779096485
-0.0780991869209286,0.0017406160408041812,9.816277756190248,-0.0010554817947599593,0.00024781131001456146,0.0008469824927833422,21.700000762939453,25604,13.199999809265137,-18.450000762939453,-61.04999923706055,-0.12087259441614151,0.013872075825929642,9.83607006072998,-0.0018624365329742432,0.001103437040001154,0.00452826451510191,30.08294105529785,,,,,,,,,,,,,,,,2779096485
-0.07815858649924966,0.004579361939779502,9.815837556415502,0.00018772174096178158,0.00012079184269614147,-0.0003399151599783462,21.5,25605,,,,-0.14723703265190125,0.013872075825929642,9.895477294921875,-0.0007971711456775665,0.0005708043463528156,-0.000265427865087986,30.177059173583984,,,,,,,,,,,,,,,,2779096485
-0.07244176024864071,0.004429342353646602,9.810302330067834,-0.00043910648050245193,0.0004462101519592948,-0.0010645746034143202,21.5,25606,,,,-0.16880793869495392,0.04028334096074104,9.817059516906738,-0.00026454031467437744,0.0019023856148123741,0.0007998375222086906,30.177059173583984,,,,,,,,,,,,,,,,2779096485
-0.07470204690891934,0.0060768288128733505,9.819820874933976,-0.0012252916025991619,0.0007108018623430525,-0.001515487720282301,21.5,25607,,,,-0.03698573634028435,0.042684365063905716,9.722006797790527,-0.0015961192548274994,-0.0004944605752825737,0.0010661538690328598,30.08294105529785,,,,,,,,,,,,,,,,2779096485
-0.07686962686420348,0.001952393004532784,9.816505104316994,-0.0003466881334090988,-0.001856751726957484,0.002474360328914324,21.5,25608,13.5,-18.0,-60.75,-0.12326936423778534,0.061892565339803696,9.817059516906738,-0.002661384642124176,0.0027013346552848816,0.0007998375222086906,30.271177291870117,,,,,,,,,,,,,,,,2779096485
-0.07333473515545846,0.0035282154850361912,9.815674172133125,-0.00026444971951261435,0.0004448585977153679,-0.00124626210963365,21.5,25609,,,,-0.09930168837308884,-0.0005340762436389923,9.769533157348633,0.001067042350769043,0.001103437040001154,-0.0005317442119121552,30.177059173583984,,,,,,,,,,,,,,,,2779096485
-0.07136860537485788,0.006700122249104065,9.813223594707774,0.0011310666558067522,0.0007229392189276778,-0.0003466596153926223,21.5,25610,,,,-0.10649199038743973,0.07149666547775269,9.874091148376465,-0.0015961192548274994,-0.0018260413780808449,-0.001330692321062088,30.08294105529785,,,,,,,,,,,,,,,,2779096485
-0.07489246947151687,0.01343216239124185,9.816649060328885,0.0006469439203737079,-0.0005571024923194225,-6.563620119599736e-05,21.700000762939453,25611,,,,-0.1040952280163765,0.01867411658167839,9.812307357788086,0.0008007250726222992,0.0008371206931769848,0.0042619481682777405,30.271177291870117,,,,,,,,,,,,,,,,2779096485
-0.07715851291912176,0.010597117448914213,9.818741783956707,-0.0002970667847392071,-0.0005424351327166085,-0.0015097086607565443,21.700000762939453,25612,13.649999618530273,-18.75,-60.150001525878906,-0.12326936423778534,0.04028334096074104,9.81468391418457,-0.0018624365329742432,-0.00022814422845840454,8.884817361831665e-07,30.177059173583984,,,,,,,,,,,,,,,,2779096485
-0.07735562681244268,0.01095536257572996,9.812864545324366,-0.0010859416995184124,0.0003691182968340199,0.00030069492003233504,21.700000762939453,25613,,,,-0.12326936423778534,0.011471051722764969,9.819436073303223,0.0002680942416191101,0.0003044884651899338,-0.0010643759742379189,30.271177291870117,,,,,,,,,,,,,,,,2779096485
-0.07718000741725556,0.011755068278833625,9.811064590787947,0.0007224445367585955,-0.00012222160510354154,0.00047490560154264997,21.600000381469727,25614,,,,-0.09211138635873795,0.011471051722764969,9.762404441833496,0.0005344115197658539,0.0005708043463528156,0.0010661538690328598,30.271177291870117,,,,,,,,,,,,,,,,2779096485
-0.07737229906664732,0.013136571843633364,9.816871028319188,8.447764411165324e-05,0.00028092771794211314,0.0005639550498802049,21.5,25615,,,,-0.11368229240179062,0.011471051722764969,9.748147010803223,-0.0010634884238243103,0.0005708043463528156,-0.003727538511157036,30.271177291870117,,,,,,,,,,,,,,,,2779096485
-0.07603388339502545,0.013068309754353854,9.809348476711085,0.00010578293268587212,0.00021877619642950933,-0.000520564033379683,21.5,25616,13.800000190734863,-17.700000762939453,-60.900001525878906,-0.10888875275850296,0.03067924454808235,9.80042552947998,0.0008007250726222992,0.0027013346552848816,8.884817361831665e-07,30.177059173583984,,,,,,,,,,,,,,,,2779096485
-0.07368040406718586,0.01477067504548768,9.815996457250844,0.0014477830862678728,-0.0003522121952622328,-0.0004299233463017408,21.5,25617,,,,-0.12326936423778534,0.006668999791145325,9.760027885437012,-0.0007971711456775665,-0.0012934091500937939,0.0007998375222086906,30.177059173583984,,,,,,,,,,,,,,,,2779096485
-0.07523522260784522,0.015316323158917986,9.810123814151716,-0.0008242661505082501,0.00028875741149313877,0.001386585531244188,21.5,25618,,,,-0.14244350790977478,0.011471051722764969,9.817059516906738,-0.0010634884238243103,-0.0010270928032696247,0.0005335211753845215,30.177059173583984,,,,,,,,,,,,,,,,2779096485
-0.07529230451854144,0.01567961504479876,9.81080918375517,-4.055776820829308e-05,0.0010893768665988816,0.00047561799712935045,21.5,25619,,,,-0.09930168837308884,0.07629871368408203,9.952508926391602,-0.00026454031467437744,-0.0018260413780808449,0.002397734671831131,30.08294105529785,,,,,,,,,,,,,,,,2779096485
-0.077257462374009,0.019171673250591565,9.815824255522632,-0.0007336321213329876,-0.0006249931259417066,-0.0006024695521421948,21.5,25620,14.100000381469727,-18.450000762939453,-61.349998474121094,-0.11607906222343445,0.033080268651247025,9.840822219848633,0.001599673181772232,0.004032915458083153,0.002397734671831131,30.177059173583984,,,,,,,,,,,,,,,,2779096485
-0.07524901646838675,0.016978837745138364,9.81369745769734,0.0007511667289177141,-0.0008949710795931346,-0.0008783131180542126,21.5,25621,,,,-0.12566612660884857,0.02827822044491768,9.741018295288086,-0.0018624365329742432,0.001369753386825323,-0.0015970086678862572,30.177059173583984,,,,,,,,,,,,,,,,2779096485
-0.07568974713446935,0.012564904883467823,9.812840372072435,-0.0003859897329258526,-8.635548336937988e-05,-0.0006055721347908156,21.5,25622,,,,-0.12566612660884857,0.07629871368408203,9.679234504699707,-0.0007971711456775665,-0.001559725496917963,0.003995631821453571,30.177059173583984,,,,,,,,,,,,,,,,2779096485
-0.07249678616386325,0.015073106755384308,9.807531783972399,0.0005756644142875873,-0.0007917802459644421,0.0007517145633431871,21.5,25623,,,,-0.08731785416603088,0.042684365063905716,9.81468391418457,0.0005344115197658539,3.817211836576462e-05,-0.0029285894706845284,30.177059173583984,,,,,,,,,,,,,,,,2779096485
-0.07738960681036201,0.019490142439294828,9.81262710944179,-0.001462852228104381,0.0010258604750369915,-0.0013324220282083265,21.399999618530273,25624,13.5,-18.0,-61.20000076293945,-0.11368229240179062,0.042684365063905716,9.78616714477539,-0.0005308538675308228,-0.0012934091500937939,0.003729315474629402,30.271177291870117,,,,,,,,,,,,,,,,2779096485
-0.07887504484921908,0.018156975611317874,9.811878822131606,-0.0006720531794508163,0.0007843117658267876,0.0007486319544026047,21.399999618530273,25625,,,,-0.0729372426867485,0.04748641327023506,9.843198776245117,-0.0005308538675308228,0.0021687019616365433,-0.0018633250147104263,30.177059173583984,,,,,,,,,,,,,,,,2779096485
-0.07301444844239692,0.014766039503827955,9.816618348716693,-0.0001257922383105267,0.0003708094041145983,0.00038789347142500477,21.399999618530273,25626,,,,-0.10888875275850296,0.13392330706119537,9.774286270141602,1.776963472366333e-06,-0.002092357724905014,0.002131418325006962,30.177059173583984,,,,,,,,,,,,,,,,2779096485
-0.07549315658545083,0.014569477584095387,9.813909973086812,-7.80284444882001e-05,-0.00027641197325677016,-0.0007829985832953018,21.600000381469727,25627,,,,-0.08492108434438705,0.09310586750507355,9.78616714477539,0.0002680942416191101,0.001369753386825323,0.0002672048285603523,30.271177291870117,,,,,,,,,,,,,,,,2779096485
-0.07810640159595439,0.014717889684007576,9.816939176714122,0.0009980151286607562,0.00023357005618323233,2.906580651640487e-05,21.700000762939453,25628,13.800000190734863,-19.200000762939453,-60.599998474121094,-0.08012755215167999,0.06669461727142334,9.745770454406738,-0.002128753811120987,-0.0012934091500937939,-0.0018633250147104263,30.177059173583984,,,,,,,,,,,,,,,,2779096485
-0.08079530723988892,0.00974862640818198,9.811867538789901,-0.000749604429860972,0.000945805853219365,-0.00042008296614152356,21.700000762939453,25629,,,,-0.12566612660884857,0.045085396617650986,9.795672416687012,-0.0023950673639774323,0.0019023856148123741,-0.0005317442119121552,30.177059173583984,,,,,,,,,,,,,,,,2779096485
-0.07734706639492504,0.011928676790670455,9.812829649161609,7.019604339009427e-06,0.0005303527260220996,-0.0008766752739950696,21.600000381469727,25630,,,,-0.08012755215167999,0.023476172238588333,9.748147010803223,0.0002680942416191101,-0.0004944605752825737,-0.0010643759742379189,30.271177291870117,,,,,,,,,,,,,,,,2779096485
-0.07594199908822044,0.00976328070117079,9.812556794047454,-0.0010833850648895066,-0.0006132019802964125,0.0008473952827494676,21.399999618530273,25631,,,,-0.16161765158176422,0.05949154123663902,9.736265182495117,1.776963472366333e-06,-0.0039565712213516235,0.0005335211753845215,30.08294105529785,,,,,,,,,,,,,,,,2779096485
-0.0793481107168421,0.012370623351164636,9.81109638589984,-0.001174558384181804,0.0009035348291075796,-0.00015358709559144422,21.399999618530273,25632,13.350000381469727,-18.299999237060547,-60.900001525878906,-0.1280628889799118,0.09310586750507355,9.762404441833496,-0.0013298019766807556,0.001369753386825323,-0.0007980605587363243,30.177059173583984,,,,,,,,,,,,,,,,2779096485
-0.08163224692461525,0.00875179803433852,9.819279573428584,0.00030205790367586255,-0.0007021648758991344,0.0030149820264851242,21.399999618530273,25633,,,,-0.13045966625213623,-0.05335661396384239,9.76478099822998,0.0002680942416191101,0.0003044884651899338,0.002397734671831131,30.177059173583984,,,,,,,,,,,,,,,,2779096485
-0.0803249328572496,0.00834413205208602,9.813309490080558,0.0007204804554681596,0.0005831898416861622,-0.0008857433374444717,21.30000114440918,25634,,,,-0.09211138635873795,0.025877196341753006,9.824188232421875,1.776963472366333e-06,-0.004489203914999962,0.0018651019781827927,30.177059173583984,,,,,,,,,,,,,,,,2779096485
-0.07793840807488779,0.007322892317728036,9.815347553016608,0.0008023793163279926,0.0005819248401770678,1.8959110249009824e-05,21.30000114440918,25635,,,,-0.11847582459449768,0.05709051713347435,9.745770454406738,0.001067042350769043,-0.00022814422845840454,-0.0010643759742379189,30.177059173583984,,,,,,,,,,,,,,,,2779096485
-0.07496442931309523,0.004421603989746898,9.814524354778877,-0.0012190531477885235,0.0001030951373741807,-0.00015477886017106453,21.399999618530273,25636,12.75,-18.299999237060547,-61.04999923706055,-0.10649199038743973,0.03788232430815697,9.812307357788086,-0.002661384642124176,0.0003044884651899338,0.002664050552994013,30.08294105529785,,,,,,,,,,,,,,,,2779096485
-0.07947614316224777,0.006506476234609067,9.814289496878347,-0.0007884066866767681,0.00016878866311224872,0.0010278710506811386,21.700000762939453,25637,,,,-0.12326936423778534,0.006668999791145325,9.807554244995117,-0.0007971711456775665,-0.0007607764564454556,0.0005335211753845215,30.177059173583984,,,,,,,,,,,,,,,,2779096485
-0.07817215606937587,0.0057917430008002126,9.816594511723288,-0.0009471710339707747,9.583136555090833e-05,-0.00014702906145219264,21.700000762939453,25638,,,,-0.09211138635873795,0.016273099929094315,9.807554244995117,1.776963472366333e-06,-0.0007607764564454556,-0.001330692321062088,30.177059173583984,,,,,,,,,,,,,,,,2779096485
-0.07882016846094007,0.002904024847193917,9.815272044296123,-0.0013849281351441755,0.00037592933127509037,0.0012116557962444934,21.700000762939453,25639,13.199999809265137,-18.450000762939453,-60.29999923706055,-0.11847582459449768,0.033080268651247025,9.833693504333496,-0.00026454031467437744,0.0008371206931769848,8.884817361831665e-07,30.177059173583984,,,,,,,,,,,,,,,,2779096485
-0.07740119514848633,0.005348002037082911,9.812402675555617,-0.0002461870924629012,-0.0008880801503199105,0.0001256187111736925,21.700000762939453,25640,,,,-0.12326936423778534,0.0354812927544117,9.817059516906738,-0.0005308538675308228,-0.0004944605752825737,8.884817361831665e-07,30.271177291870117,,,,,,,,,,,,,,,,2779096485
-0.0758267138147515,0.007295639818776906,9.8116977655955,-0.0010340633218401903,-8.140866167855379e-05,0.00012552550053618024,21.700000762939453,25641,,,,-0.08012755215167999,0.023476172238588333,9.859832763671875,1.776963472366333e-06,-0.0010270928032696247,-0.0005317442119121552,30.271177291870117,,,,,,,,,,,,,,,,2779096485
-0.07541226250899598,0.0026515373603407865,9.814519460349196,0.0003625316337132465,-7.929144862649055e-05,0.00021120605011793695,21.700000762939453,25642,,,,-0.12326936423778534,0.06669461727142334,9.83607006072998,-0.00026454031467437744,0.0005708043463528156,-0.0007980605587363243,30.177059173583984,,,,,,,,,,,,,,,,2779096485
-0.07622490406539714,0.001911607714607293,9.818002575626767,-0.0005556330931980697,-0.00032930901004494736,0.0014788107991598374,21.600000381469727,25643,14.550000190734863,-18.450000762939453,-60.900001525878906,-0.08731785416603088,0.03067924454808235,9.78616714477539,-0.0007971711456775665,-0.001559725496917963,0.002131418325006962,30.177059173583984,,,,,,,,,,,,,,,,2779096485
-0.07701350916562434,0.007582183583468828,9.81008148293929,0.00013472483563341242,0.0010751422706702313,-0.0012452567663290542,21.5,25644,,,,-0.08012755215167999,0.001866951584815979,9.817059516906738,1.776963472366333e-06,-0.00022814422845840454,0.0010661538690328598,30.177059173583984,,,,,,,,,,,,,,,,2779096485
-0.07287770605253006,0.010100067756110064,9.817421259356589,0.0006602131204138384,0.0001944149305254262,0.0006574120297915514,21.5,25645,,,,-0.1040952280163765,0.04748641327023506,9.824188232421875,-0.0023950673639774323,-0.0012934091500937939,-0.001330692321062088,30.271177291870117,,,,,,,,,,,,,,,,2779096485
-0.07666365349947786,0.007500426086615439,9.814852617825975,0.0008648970224879658,0.0019677273354871258,0.0013779768630796678,21.700000762939453,25646,,,,-0.03219220042228699,0.0883038341999054,9.776662826538086,0.0013333596289157867,-0.00022814422845840454,-0.0015970086678862572,30.271177291870117,,,,,,,,,,,,,,,,2779096485
-0.07262152901651106,0.007706221706266976,9.813058155512172,0.0007990570228909501,4.018887601384483e-06,-0.0006054922399586623,21.700000762939453,25647,13.5,-18.450000762939453,-60.599998474121094,-0.11368229240179062,0.033080268651247025,9.752899169921875,0.0002680942416191101,-0.003423938760533929,8.884817361831665e-07,30.177059173583984,,,,,,,,,,,,,,,,2779096485
-0.07712984112769805,0.006747113183509511,9.82087392455638,-0.000690042832490672,0.001545929227036352,0.0015673076415749986,21.700000762939453,25648,,,,-0.08492108434438705,-0.0005340762436389923,9.795672416687012,0.0026649385690689087,-0.002092357724905014,0.002664050552994013,30.177059173583984,,,,,,,,,,,,,,,,2779096485
-0.0740131388982971,0.005602545610962533,9.8145634354922,1.2359242287922779e-05,0.000194821062588872,0.0008452647538920457,21.700000762939453,25649,,,,-0.11847582459449768,0.042684365063905716,9.809930801391602,-0.00026454031467437744,0.001636069267988205,0.0007998375222086906,30.177059173583984,,,,,,,,,,,,,,,,2779096485
-0.07628288313775457,0.006077015729875759,9.812018182610286,-0.0005990559344733991,0.0005401997640849966,-0.0006930569759987012,21.700000762939453,25650,,,,-0.11607906222343445,0.011471051722764969,9.859832763671875,-0.0007971711456775665,-0.0012934091500937939,-0.000265427865087986,30.271177291870117,,,,,,,,,,,,,,,,2779096485
-0.07368219839050832,0.00502119635007224,9.814885757971975,-0.00015989401583463552,-0.00036032152072579433,-0.001144143198336348,21.700000762939453,25651,13.5,-18.899999618530273,-60.0,-0.10649199038743973,0.01867411658167839,9.812307357788086,-0.0013298019766807556,0.001103437040001154,8.884817361831665e-07,30.177059173583984,,,,,,,,,,,,,,,,2779096485
-0.07379710984661843,0.005502208564069758,9.816882311660892,8.645504120744808e-05,-0.0002933430197705946,-0.0006938692401255936,21.700000762939453,25652,,,,-0.13764996826648712,0.05709051713347435,9.77903938293457,0.001067042350769043,-0.0004944605752825737,0.0034629995934665203,30.177059173583984,,,,,,,,,,,,,,,,2779096485
-0.07422759791706858,0.009546120527772829,9.812563818114477,-8.590474335798187e-05,0.0005603598933983508,0.0007451032659824999,21.399999618530273,25653,,,,-0.10888875275850296,-0.022143293172121048,9.767157554626465,0.0005344115197658539,-0.001559725496917963,0.0018651019781827927,30.177059173583984,,,,,,,,,,,,,,,,2779096485
-0.07403175500276775,0.006684645521304658,9.811929746617515,0.00023622456198152657,-0.0005717365624088389,0.0004736206263255174,21.399999618530273,25654,,,,-0.08492108434438705,0.07149666547775269,9.788543701171875,-0.0018624365329742432,0.0019023856148123741,8.884817361831665e-07,30.177059173583984,,,,,,,,,,,,,,,,2779096485
-0.07597852104417996,0.00808016786128502,9.815267934469674,0.0005012157465260516,6.848735924643457e-05,0.000833074134085985,21.5,25655,13.649999618530273,-18.149999618530273,-61.5,-0.1592208743095398,0.06429359316825867,9.864584922790527,-0.0007971711456775665,-0.0039565712213516235,-0.0018633250147104263,30.177059173583984,,,,,,,,,,,,,,,,2779096485
-0.07479120234900474,0.007152349244730704,9.816962826897234,0.0010947877441064655,0.0009095269415190779,0.0002912207245194872,21.5,25656,,,,-0.17360147833824158,0.013872075825929642,9.795672416687012,0.0008007250726222992,0.0019023856148123741,0.00452826451510191,30.177059173583984,,,,,,,,,,,,,,,,2779096485
-0.07648384734987164,0.007690034693858417,9.805299699865898,0.0005698920126645099,0.0012709112410565849,0.0006539432624955615,21.5,25657,,,,-0.10649199038743973,0.01867411658167839,9.77903938293457,-0.00026454031467437744,0.0027013346552848816,-0.001330692321062088,30.08294105529785,,,,,,,,,,,,,,,,2779096485
-0.0743965259815323,0.009505335237847337,9.814897302848092,-0.0001218507599242964,-0.0008935462884197337,-0.0006036546588191359,21.5,25658,,,,-0.17839501798152924,0.02827822044491768,9.85745620727539,1.776963472366333e-06,-0.001559725496917963,-0.000265427865087986,30.271177291870117,,,,,,,,,,,,,,,,2779096485
-0.07721529577593086,0.007146816501459418,9.812057973202725,0.00035484175611848927,0.0009807731580918017,-0.0006983766402395768,21.700000762939453,25659,13.800000190734863,-18.0,-60.900001525878906,-0.10169845074415207,0.013872075825929642,9.771909713745117,-0.0015961192548274994,0.004032915458083153,0.002930366899818182,30.08294105529785,,,,,,,,,,,,,,,,2779096485
-0.07788704556978196,0.007671417760418551,9.818891792622095,0.0006189474396066483,0.0018080042502072796,0.0005658592100465257,21.700000762939453,25660,,,,-0.07533401250839233,0.04988744482398033,9.798048973083496,0.0005344115197658539,-0.00022814422845840454,-0.0021296413615345955,30.177059173583984,,,,,,,,,,,,,,,,2779096485
-0.07937663298132225,0.0067104774510374846,9.816484331012397,0.0007964537829432878,0.0008182737273946276,0.00020654551824232648,21.700000762939453,25661,,,,-0.1831885427236557,0.004267975687980652,9.805177688598633,0.0008007250726222992,-0.002092357724905014,0.0007998375222086906,30.271177291870117,,,,,,,,,,,,,,,,2779096485
-0.07695747394353292,0.0101216005947875,9.815230497686928,-2.266132580594927e-05,4.4126093342351444e-05,0.0010238430195600755,21.600000381469727,25662,,,,-0.14723703265190125,0.006668999791145325,9.817059516906738,-0.0007971711456775665,0.0035002827644348145,0.0010661538690328598,30.08294105529785,,,,,,,,,,,,,,,,2779096485
-0.07949685264392797,0.005090804241769091,9.810339991022932,0.0007490362000602924,-0.00017497216803277066,-0.0006092006917511124,21.5,25663,13.199999809265137,-17.850000381469727,-59.849998474121094,-0.14723703265190125,0.009070027619600296,9.817059516906738,-0.00026454031467437744,-0.0039565712213516235,0.003995631821453571,30.177059173583984,,,,,,,,,,,,,,,,2779096485
-0.07349603734580168,0.008651087153440928,9.814416303705327,-0.0012644600440623274,-6.134413984767127e-06,-0.0005127210240232984,21.5,25664,,,,-0.11128553003072739,0.013872075825929642,9.769533157348633,0.001067042350769043,0.0019023856148123741,-0.0021296413615345955,30.177059173583984,,,,,,,,,,,,,,,,2779096485
-0.07415646047367967,0.010510500109998207,9.81545250303929,0.001037762807657033,0.0009032219076816452,0.0008296386563033922,21.30000114440918,25665,,,,-0.08731785416603088,0.05468948557972908,9.828940391540527,1.776963472366333e-06,-0.0007607764564454556,-0.002662274055182934,30.177059173583984,,,,,,,,,,,,,,,,2779096485
-0.0765449291063075,0.01192968614248346,9.813244816357074,0.0010246267656704913,-0.0014734362959938916,-0.00015975231347260897,21.30000114440918,25666,13.350000381469727,-18.450000762939453,-60.75,-0.08492108434438705,0.01867411658167839,9.752899169921875,-0.0007971711456775665,0.0019023856148123741,0.0007998375222086906,30.271177291870117,,,,,,,,,,,,,,,,2779096485
-0.07207758737765033,0.009526830693124292,9.816069836333988,-0.0006409008528137005,0.0009510722542388052,0.0002902353549229296,21.30000114440918,25667,,,,-0.09690491855144501,0.07389768958091736,9.828940391540527,0.001067042350769043,-0.00022814422845840454,-0.000265427865087986,30.177059173583984,,,,,,,,,,,,,,,,2779096485
-0.07466892669092534,0.009626195771604543,9.815768959675863,-0.001292203524527568,0.00031833181519522625,0.0009325898054356248,21.5,25668,,,,-0.08492108434438705,0.04748641327023506,9.75527572631836,-0.0005308538675308228,0.0005708043463528156,0.0005335211753845215,30.177059173583984,,,,,,,,,,,,,,,,2779096485
-0.07754182523888521,0.007990148632925183,9.815765111383826,-0.000239682321545085,0.00041268095406561765,0.00029525541354322974,21.5,25669,,,,-0.08012755215167999,0.0354812927544117,9.748147010803223,0.001067042350769043,0.0024350183084607124,0.002664050552994013,30.271177291870117,,,,,,,,,,,,,,,,2779096485
-0.07661359935512801,0.010170348549015584,9.810579033474028,0.001069927135501424,0.000324237374871892,0.00029100767163374496,21.5,25670,13.050000190734863,-18.299999237060547,-60.45000076293945,-0.05855664238333702,0.061892565339803696,9.788543701171875,1.776963472366333e-06,0.0003044884651899338,0.0015987856313586235,30.177059173583984,,,,,,,,,,,,,,,,2779096485
-0.07818258557368775,0.012276454565351336,9.81933146932802,-0.00025666663128034485,-0.0008707163401319223,0.0012939874207784899,21.5,25671,,,,0.006156078539788723,-0.0029350966215133667,9.81468391418457,1.776963472366333e-06,-0.002092357724905014,0.002930366899818182,30.177059173583984,,,,,,,,,,,,,,,,2779096485
-0.07992868645687,0.012161949209676011,9.810991734773623,-0.00017323645280424007,-0.0010726372125940808,-0.00033582054983048856,21.399999618530273,25672,,,,-0.10649199038743973,0.07629871368408203,9.77903938293457,-0.0005308538675308228,0.0019023856148123741,-0.0005317442119121552,30.177059173583984,,,,,,,,,,,,,,,,2779096485
-0.07407672523103725,0.008351309664978499,9.814161046120786,0.0003486831961400042,-0.0006965855534537607,0.0016529881911567551,21.399999618530273,25673,,,,-0.08252431452274323,0.0354812927544117,9.762404441833496,-0.0015961192548274994,-0.0010270928032696247,0.00612616166472435,30.177059173583984,,,,,,,,,,,,,,,,2779096485
-0.07752515298468056,0.008334748818565123,9.821411938200612,0.001321056566667348,0.0006586704843630107,-0.0005268291198010388,21.5,25674,13.949999809265137,-18.0,-60.75,-0.1040952280163765,0.04028334096074104,9.741018295288086,0.0021323077380657196,-0.0007607764564454556,-0.001330692321062088,30.177059173583984,,,,,,,,,,,,,,,,2779096485
-0.0775821227501691,0.007484126924005435,9.812522122057048,0.0009064955984291276,0.00041515103595969084,-0.0017902926533763259,21.5,25675,,,,-0.13045966625213623,0.04028334096074104,9.760027885437012,0.0005344115197658539,0.001636069267988205,0.0013324692845344543,30.177059173583984,,,,,,,,,,,,,,,,2779096485
-0.08044268532528695,0.005465871898801584,9.816729351392873,-0.000388952499618205,0.0009043004879157159,-0.00015632349359269567,21.5,25676,,,,-0.10169845074415207,0.05949154123663902,9.72913646697998,-0.002128753811120987,-0.00022814422845840454,-0.003993854857981205,30.177059173583984,,,,,,,,,,,,,,,,2779096485
-0.07509963905179082,0.007470743666633001,9.813366130961436,-0.00018793044401777155,0.0004997663211127367,-0.00024388822963273453,21.600000381469727,25677,,,,-0.08012755215167999,0.016273099929094315,9.745770454406738,-0.0010634884238243103,-0.0010270928032696247,8.884817361831665e-07,30.271177291870117,,,,,,,,,,,,,,,,2779096485
-0.07800236822498678,0.00804345736201203,9.809028956385704,0.00030115908681413754,-5.065580920220452e-05,-0.001687834189042372,21.700000762939453,25678,13.199999809265137,-18.299999237060547,-61.04999923706055,-0.09211138635873795,0.06429359316825867,9.78616714477539,0.0008007250726222992,-0.0010270928032696247,0.002930366899818182,30.177059173583984,,,,,,,,,,,,,,,,2779096485
-0.08056686745189648,0.011133830929629402,9.816032847895947,0.00012524398221788486,0.0003992652801665395,-0.001507717947855391,21.700000762939453,25679,,,,-0.17360147833824158,0.05468948557972908,9.817059516906738,0.0013333596289157867,-0.0004944605752825737,0.0010661538690328598,30.271177291870117,,,,,,,,,,,,,,,,2779096485
-0.07779695558629944,0.008723910017579202,9.806211408820516,-0.0007466616368766586,-0.00029807013067299944,0.0010329710041335925,21.700000762939453,25680,,,,-0.13285642862319946,0.0786997377872467,9.76478099822998,0.0008007250726222992,-0.0026249901857227087,0.003729315474629402,30.177059173583984,,,,,,,,,,,,,,,,2779096485
-0.07874435830056557,0.009376474656387057,9.8117412923938,0.000996210837034627,0.0009467379595944877,-0.0005166957919229263,21.700000762939453,25681,,,,-0.04177926853299141,0.08350178599357605,9.859832763671875,-0.00026454031467437744,-0.0023586738388985395,-0.000265427865087986,30.177059173583984,,,,,,,,,,,,,,,,2779096485
-0.07485243363238417,0.008233252886257416,9.812407532623238,0.0001256967196000872,5.177602352103138e-05,-0.00014835398408540165,21.700000762939453,25682,13.800000190734863,-18.75,-60.900001525878906,-0.09211138635873795,0.0786997377872467,9.731513023376465,0.001067042350769043,0.002967650070786476,8.884817361831665e-07,30.177059173583984,,,,,,,,,,,,,,,,2779096485
-0.0701261486192525,0.010429452897753969,9.815645739606511,-0.0009217112141245835,-0.00011957175983712265,0.0009424102118878038,21.700000762939453,25683,,,,-0.09930168837308884,0.06669461727142334,9.843198776245117,-0.0007971711456775665,0.001103437040001154,-0.0005317442119121552,30.177059173583984,,,,,,,,,,,,,,,,2779096485
-0.07439918008478012,0.007404537664379981,9.81355951697689,0.0011692963329921159,0.0012312168252817434,0.0012925759454104479,21.700000762939453,25684,,,,-0.13764996826648712,0.033080268651247025,9.793295860290527,-0.00292770192027092,3.817211836576462e-05,-0.0010643759742379189,30.271177291870117,,,,,,,,,,,,,,,,2779096485
-0.07388619052323207,0.008076466904637335,9.812701086317873,-0.00013440090647504717,-0.0005764769891166031,-0.00014524474353410158,21.700000762939453,25685,,,,-0.06335017830133438,0.061892565339803696,9.819436073303223,0.0013333596289157867,-0.0012934091500937939,0.002930366899818182,30.177059173583984,,,,,,,,,,,,,,,,2779096485
-0.07429211879320587,0.010290984782369901,9.815714859414973,0.0002981963201217851,0.0009400001620828912,-0.0012385922057469314,21.700000762939453,25686,12.899999618530273,-18.600000381469727,-61.20000076293945,-0.10888875275850296,0.045085396617650986,9.752899169921875,0.0005344115197658539,0.0003044884651899338,0.0015987856313586235,30.177059173583984,,,,,,,,,,,,,,,,2779096485
-0.07201923448793404,0.0060861746629937655,9.813545506204905,3.7186561379567214e-05,0.000499506662908239,-0.00024015980413224624,21.700000762939453,25687,,,,-0.08252431452274323,-0.010138172656297684,9.883596420288086,-0.0023950673639774323,-0.0004944605752825737,-0.0007980605587363243,30.177059173583984,,,,,,,,,,,,,,,,2779096485
-0.07519014023436808,0.00796622325661692,9.810803131101673,-0.0012681751537574567,-0.0007668597162352854,-0.0013176947474813979,21.700000762939453,25688,,,,-0.04657280445098877,0.06669461727142334,9.760027885437012,-0.0010634884238243103,-0.003690255107358098,-0.000265427865087986,30.177059173583984,,,,,,,,,,,,,,,,2779096485
-0.07639734601303405,0.0047249702846555676,9.81479560332451,-0.00039844001093641184,0.00014402126514471893,0.00021532063397383281,21.700000762939453,25689,,,,-0.09930168837308884,0.016273099929094315,9.82656478881836,-0.0007971711456775665,0.0037665991112589836,0.0013324692845344543,30.177059173583984,,,,,,,,,,,,,,,,2779096485
-0.07315885408812016,0.006541878314865199,9.814554879580776,-0.0006388369029830731,0.0016238932674126324,0.00012263597077330187,21.700000762939453,25690,13.800000190734863,-19.049999237060547,-60.599998474121094,-0.09211138635873795,0.10270997881889343,9.74339485168457,0.0013333596289157867,-0.002092357724905014,-0.004526487551629543,30.177059173583984,,,,,,,,,,,,,,,,2779096485
-0.06860807632496795,0.010476406448758933,9.81759618851508,-0.0005444345008912459,-0.000804376997833949,-0.0005935146730383437,21.700000762939453,25691,,,,-0.09930168837308884,0.03067924454808235,9.726759910583496,-0.00026454031467437744,0.0024350183084607124,0.003196683246642351,30.177059173583984,,,,,,,,,,,,,,,,2779096485
-0.07196888128969713,0.007050329944816254,9.807992047172627,0.00032498772050386544,0.00036655500430243446,-0.0001479345362165969,21.700000762939453,25692,,,,-0.1831885427236557,0.04748641327023506,9.85032844543457,-0.0010634884238243103,-0.0031576226465404034,0.0010661538690328598,30.08294105529785,,,,,,,,,,,,,,,,2779096485
-0.07422307472702651,0.008727648357627368,9.809882380528867,0.0011805415306176958,0.0011446774062543385,-0.0005171485293051282,21.700000762939453,25693,,,,-0.08012755215167999,0.09310586750507355,9.788543701171875,0.0029312558472156525,0.0027013346552848816,0.0018651019781827927,30.177059173583984,,,,,,,,,,,,,,,,2779096485
-0.07056321587521838,0.01093420357105734,9.81209858576045,0.00016112341975740548,0.0005867984249384207,-0.000607576163497328,21.399999618530273,25694,13.350000381469727,-18.149999618530273,-59.70000076293945,-0.12087259441614151,0.03788232430815697,9.767157554626465,-0.00026454031467437744,3.817211836576462e-05,-0.0029285894706845284,30.177059173583984,,,,,,,,,,,,,,,,2779096485
-0.07312771510212807,0.008583460581969606,9.815566606766339,-0.0009750676461976423,-0.0007651619510520274,-0.00014662292938874642,21.399999618530273,25695,,,,-0.09450815618038177,0.03067924454808235,9.78616714477539,-0.0013298019766807556,-0.0018260413780808449,-0.0010643759742379189,30.177059173583984,,,,,,,,,,,,,,,,2779096485
-0.07494899065617477,0.009242866383065604,9.812344801726804,-0.00047489936530713955,-0.0016925212415636551,0.0015729402272418077,21.399999618530273,25696,,,,-0.11128553003072739,0.04748641327023506,9.819436073303223,0.0008007250726222992,-0.0026249901857227087,0.0005335211753845215,30.271177291870117,,,,,,,,,,,,,,,,2779096485
-0.07329129757836025,0.008289215836778462,9.813469511777658,0.00028360219744844517,0.0007606828692174423,-0.0010659328155609269,21.30000114440918,25697,,,,-0.12326936423778534,0.08590281009674072,9.71963119506836,-0.002128753811120987,0.001636069267988205,-0.0015970086678862572,30.177059173583984,,,,,,,,,,,,,,,,2779096485
-0.07346848700645454,0.006141801162910476,9.817376910593,-0.00024089405983274354,0.0010293225844303028,-0.00106505397240724,21.30000114440918,25698,13.5,-18.299999237060547,-60.29999923706055,-0.09450815618038177,0.03788232430815697,9.752899169921875,0.0002680942416191101,0.0019023856148123741,0.0002672048285603523,30.177059173583984,,,,,,,,,,,,,,,,2779096485
-0.07429839892483452,0.00995202949020269,9.817786548203786,-0.0009290815123907266,-0.000836887536617671,3.087675604521341e-05,21.399999618530273,25699,,,,-0.11607906222343445,0.02827822044491768,9.74339485168457,0.0005344115197658539,-0.0023586738388985395,8.884817361831665e-07,30.177059173583984,,,,,,,,,,,,,,,,2779096485
-0.07471053256296521,0.006983937025560827,9.812827631610443,-0.0007963895119894207,-0.0003143154132108413,-0.0009632612983412306,21.5,25700,,,,-0.09450815618038177,0.04988744482398033,9.748147010803223,0.0029312558472156525,0.005098179914057255,0.0002672048285603523,30.177059173583984,,,,,,,,,,,,,,,,2779096485
-0.07154852366967177,0.005911444649142487,9.811565840166487,0.00016455223963731877,-0.0005825290226522169,-0.0009656581433058302,21.5,25701,12.75,-18.0,-60.900001525878906,-0.14963380992412567,0.0786997377872467,9.82656478881836,-0.0005308538675308228,0.0005708043463528156,0.0005335211753845215,30.177059173583984,,,,,,,,,,,,,,,,2779096485
-0.07795530461950774,0.00865430212588235,9.817667961029704,0.00047046955195238207,6.22156149223986e-05,-0.0009726622569246049,21.5,25702,,,,-0.13045966625213623,0.0354812927544117,9.79092025756836,0.0013333596289157867,0.0035002827644348145,-0.0010643759742379189,30.177059173583984,,,,,,,,,,,,,,,,2779096485
-0.07642841023555438,0.008786826280589835,9.813628973043876,2.744604975954152e-05,-0.0015547359456125742,0.0010255740742567308,21.5,25703,,,,-0.10649199038743973,0.08110074698925018,9.776662826538086,0.0037302039563655853,0.0005708043463528156,0.0005335211753845215,30.177059173583984,,,,,,,,,,,,,,,,2779096485
-0.07960881094290317,0.003423728880689952,9.816396007105801,0.0008976938510869034,-0.0004004819896881971,-0.0005207371388493481,21.5,25704,,,,-0.14723703265190125,0.013872075825929642,9.781414985656738,0.0008007250726222992,-0.002092357724905014,-0.0015970086678862572,30.177059173583984,,,,,,,,,,,,,,,,2779096485
-0.07542059863609829,0.009228585924081609,9.816655299792675,-0.00022673935873624698,-0.00046841922862923737,2.7594410024247987e-05,21.5,25705,13.5,-18.75,-60.900001525878906,-0.09930168837308884,0.045085396617650986,9.812307357788086,-0.00026454031467437744,-0.001559725496917963,-0.003993854857981205,30.271177291870117,,,,,,,,,,,,,,,,2779096485
-0.0777641718039284,0.007398631087103879,9.810670010086785,-0.002194495811451091,-0.00011652909831261736,0.0013950277518417222,21.5,25706,,,,-0.08492108434438705,0.02827822044491768,9.781414985656738,0.0008007250726222992,0.005364496260881424,-0.000265427865087986,30.271177291870117,,,,,,,,,,,,,,,,2779096485
-0.07468686992415008,0.005094318281414366,9.812875529769602,-0.0007982404089343065,0.00023080036866858413,-0.0001502781179597611,21.5,25707,,,,-0.05376310646533966,0.09310586750507355,9.769533157348633,-0.0018624365329742432,-0.0007607764564454556,-0.0010643759742379189,30.177059173583984,,,,,,,,,,,,,,,,2779096485
-0.08154279243064277,0.0048775319420212215,9.811881885820414,-0.0010625058820867722,0.0008714370802899831,0.0013876241640621812,21.5,25708,,,,-0.09930168837308884,0.016273099929094315,9.82656478881836,0.0008007250726222992,-0.00022814422845840454,0.0034629995934665203,30.177059173583984,,,,,,,,,,,,,,,,2779096485
-0.07954309385121756,0.010855474129642965,9.816480146461831,0.0005342522596214496,0.0008248517352419183,0.001022318359846483,21.600000381469727,25709,13.199999809265137,-18.600000381469727,-61.04999923706055,-0.08012755215167999,0.0354812927544117,9.776662826538086,-0.003460332751274109,0.0005708043463528156,0.0042619481682777405,30.177059173583984,,,,,,,,,,,,,,,,2779096485
-0.07652515416802441,0.007634258660339781,9.819149217206036,-0.00048609795761396296,6.710917339178973e-05,0.0017551337340647752,21.700000762939453,25710,,,,-0.12326936423778534,0.04028334096074104,9.833693504333496,0.0029312558472156525,0.0024350183084607124,-0.0007980605587363243,30.177059173583984,,,,,,,,,,,,,,,,2779096485
-0.07847405096838207,0.009010005181465344,9.811708675316618,-0.0015322808372456157,-4.485011806572986e-05,-0.000776047732897963,21.700000762939453,25711,,,,-0.08971461653709412,0.05468948557972908,9.752899169921875,-0.0007971711456775665,0.0021687019616365433,-0.0018633250147104263,30.271177291870117,,,,,,,,,,,,,,,,2779096485
-0.07767426872912529,0.00987569258641914,9.815750614905077,0.0008226459720842181,0.0005877105576055043,-0.0005148249212700027,21.700000762939453,25712,,,,-0.12087259441614151,0.0354812927544117,9.74339485168457,-0.0005308538675308228,-0.002092357724905014,0.0015987856313586235,30.177059173583984,,,,,,,,,,,,,,,,2779096485
-0.0768434222673482,0.007779156720606695,9.813389781144545,0.00021005234654863448,0.0008729417662955369,0.0014782515353347642,21.700000762939453,25713,13.949999809265137,-19.049999237060547,-60.75,-0.10649199038743973,0.11231407523155212,9.866961479187012,-0.002128753811120987,-0.0018260413780808449,0.002664050552994013,30.08294105529785,,,,,,,,,,,,,,,,2779096485
-0.0821373863216275,0.007383416043107844,9.809985761345088,0.0003877384532576188,-0.00012057710314171844,0.0006662337508418139,21.700000762939453,25714,,,,-0.08492108434438705,0.006668999791145325,9.733888626098633,0.0018659904599189758,-0.0018260413780808449,0.0007998375222086906,30.271177291870117,,,,,,,,,,,,,,,,2779096485
-0.07852604896299793,0.009825823130176606,9.813584624280287,-0.000745902635971202,-0.0004828069563195137,0.00039981111722120835,21.700000762939453,25715,,,,-0.0729372426867485,0.033080268651247025,9.774286270141602,-0.00026454031467437744,0.001103437040001154,0.0013324692845344543,30.177059173583984,,,,,,,,,,,,,,,,2779096485
-0.07630650839483381,0.005581461373090876,9.813850305879185,-0.001795481045969371,0.0004893933087381638,-0.001229730537280592,21.700000762939453,25716,,,,-0.1352531909942627,0.001866951584815979,9.77903938293457,-0.0031940191984176636,0.001103437040001154,0.00532721308991313,30.271177291870117,,,,,,,,,,,,,,,,2779096485
-0.07270489028753431,0.005351179626123852,9.807098682988794,-0.0011006090591212264,0.0015749843143294416,-0.00023997338285722172,21.700000762939453,25717,13.949999809265137,-18.450000762939453,-60.45000076293945,-0.14004673063755035,0.04748641327023506,9.74339485168457,0.0008007250726222992,3.817211836576462e-05,-0.0018633250147104263,30.271177291870117,,,,,,,,,,,,,,,,2779096485
-0.07588416954280655,0.00707186278349369,9.822232633180414,-4.988548986219329e-05,0.0004948794205460252,-0.0007830984518354934,21.700000762939453,25718,,,,-0.1352531909942627,0.06909564137458801,9.722006797790527,-0.002128753811120987,0.0003044884651899338,0.0005335211753845215,30.271177291870117,,,,,,,,,,,,,,,,2779096485
-0.07891186585906566,0.007395303964461012,9.820530903496126,0.00016640979448488344,0.0005060114338260547,-0.0006068637679106275,21.600000381469727,25719,,,,-0.07533401250839233,0.03788232430815697,9.771909713745117,-0.0015961192548274994,0.001103437040001154,0.0002672048285603523,30.271177291870117,,,,,,,,,,,,,,,,2779096485
-0.07628594844009713,0.00681309488535964,9.811078489473754,0.0012935660865039263,0.001227275346895513,0.0007443775545904405,21.5,25720,,,,-0.1040952280163765,0.07629871368408203,9.809930801391602,0.0013333596289157867,3.817211836576462e-05,0.003995631821453571,30.177059173583984,,,,,,,,,,,,,,,,2779096485
-0.07723346329957091,0.006761767476498322,9.817405940912552,7.315920955659966e-05,0.0009387484763791554,-0.0014233956104202404,21.5,25721,13.199999809265137,-17.700000762939453,-60.150001525878906,-0.16401441395282745,0.07149666547775269,9.762404441833496,-0.0015961192548274994,0.0032339664176106453,0.0015987856313586235,30.177059173583984,,,,,,,,,,,,,,,,2779096485
-0.07407769715617026,0.0072853967670449315,9.813520473625625,0.000561003712587453,0.0006206072547446347,0.000293124884685808,21.399999618530273,25722,,,,-0.08012755215167999,0.013872075825929642,9.769533157348633,0.0023986250162124634,-0.001559725496917963,-0.0034612221643328667,30.177059173583984,,,,,,,,,,,,,,,,2779096485
-0.07700958408335644,0.005737312769698915,9.814710754089369,0.000633148746021901,0.0004994533996868031,-0.0001608042620959609,21.30000114440918,25723,,,,-0.11368229240179062,0.04988744482398033,9.76478099822998,0.0037302039563655853,0.0005708043463528156,-0.002662274055182934,30.177059173583984,,,,,,,,,,,,,,,,2779096485
-0.0764149901923717,0.004859400992787616,9.81265486945135,-0.0004123217380230513,-0.0003881049486071115,0.0011135516002628953,21.30000114440918,25724,,,,-0.08971461653709412,0.045085396617650986,9.82656478881836,-0.004791915416717529,3.817211836576462e-05,0.0018651019781827927,30.177059173583984,,,,,,,,,,,,,,,,2779096485
-0.07333495944587379,0.003168325488599252,9.813397440366565,-0.0010688175738268846,-6.859219902062477e-05,-0.0015978792659404129,21.600000381469727,25725,13.649999618530273,-18.75,-60.45000076293945,-0.14244350790977478,-0.0005340762436389923,9.72913646697998,0.0005344115197658539,3.817211836576462e-05,0.002664050552994013,30.271177291870117,,,,,,,,,,,,,,,,2779096485
-0.0760584805772377,0.007281135059390022,9.816010355936653,0.0005994797321719563,-0.00012822703332039925,-0.0003349616803848404,21.700000762939453,25726,,,,-0.13764996826648712,0.016273099929094315,9.82656478881836,-0.0010634884238243103,-0.002891306299716234,0.0007998375222086906,30.271177291870117,,,,,,,,,,,,,,,,2779096485
-0.07064825932435646,0.003037633120515369,9.813209172953144,0.0006849805183813677,0.0006694429708983514,-0.0015151215356349317,21.700000762939453,25727,,,,-0.16401441395282745,0.04748641327023506,9.68398666381836,0.001599673181772232,0.0019023856148123741,-0.0021296413615345955,30.177059173583984,,,,,,,,,,,,,,,,2779096485
-0.07456474379301421,0.00441083757040818,9.816987747390339,0.0009611769531353959,0.0009131288668686567,-0.00016518516205903458,21.5,25728,13.649999618530273,-18.75,-60.45000076293945,-0.1592208743095398,-0.01494022086262703,9.781414985656738,0.0002680942416191101,-0.003690255107358098,0.0018651019781827927,30.271177291870117,,,,,,,,,,,,,,,,2779096485
-0.07215489280746022,0.002905856633817518,9.818286900892922,-0.0008121887150477403,-4.658117276238553e-05,-0.0009732614681657544,21.30000114440918,25729,,,,-0.12326936423778534,0.025877196341753006,9.75527572631836,0.0005344115197658539,0.001103437040001154,0.0010661538690328598,30.177059173583984,,,,,,,,,,,,,,,,2779096485
-0.07345488005459244,0.003035315349685506,9.817459443380507,-0.00011492654113767547,6.0484560225743805e-05,0.0010158801679554614,21.30000114440918,25730,,,,-0.14244350790977478,0.08350178599357605,9.733888626098633,0.0013333596289157867,-0.0012934091500937939,0.0002672048285603523,30.271177291870117,,,,,,,,,,,,,,,,2779096485
-0.07268104074003977,0.006166436823827889,9.818205899949819,2.6627127729969818e-05,-0.000850482973889094,-0.0006971782177572767,21.5,25731,,,,-0.11607906222343445,0.04028334096074104,9.75052261352539,-0.0018624365329742432,0.0019023856148123741,0.002397734671831131,30.08294105529785,,,,,,,,,,,,,,,,2779096485
-0.0750825929802273,0.007212274835702805,9.809206949233005,0.0007730512550250443,0.00023080036866858413,-0.00033682589313508435,21.700000762939453,25732,13.199999809265137,-18.600000381469727,-60.599998474121094,-0.06335017830133438,-0.0053361207246780396,9.843198776245117,-0.0018624365329742432,-0.001559725496917963,-0.000265427865087986,30.177059173583984,,,,,,,,,,,,,,,,2779096485
-0.07209141861992771,0.0030350536658821344,9.81517281066841,-0.0010608214327088726,0.0005833363155451103,-0.0008749508772010941,21.700000762939453,25733,,,,-0.08012755215167999,-0.007737148553133011,9.776662826538086,0.001599673181772232,0.001636069267988205,-0.0005317442119121552,30.177059173583984,,,,,,,,,,,,,,,,2779096485
-0.07267965761581202,0.0051656458095333735,9.808631087823384,0.0002229886514547928,0.0004523420803270615,-0.0005190726631794877,21.600000381469727,25734,,,,-0.09450815618038177,0.02827822044491768,9.738641738891602,-0.0010634884238243103,0.0035002827644348145,-0.0010643759742379189,30.271177291870117,,,,,,,,,,,,,,,,2779096485
-0.07512023638826337,0.0074919400547061015,9.808391223407,-0.0011975348063285626,-0.0004816151917398934,0.0007544376455390794,21.5,25735,,,,-0.12566612660884857,0.02107514813542366,9.781414985656738,-0.0031940191984176636,-0.0031576226465404034,0.0007998375222086906,30.177059173583984,,,,,,,,,,,,,,,,2779096485
-0.07359898664642861,0.004838466288517886,9.815646935192387,-6.561811389371773e-05,0.0005078756465762991,0.0009281156948350389,21.5,25736,13.350000381469727,-18.450000762939453,-60.150001525878906,-0.09930168837308884,0.03788232430815697,9.76478099822998,-0.00026454031467437744,-0.0031576226465404034,-0.000265427865087986,30.177059173583984,,,,,,,,,,,,,,,,2779096485
-0.07271079660180413,0.008766452327327331,9.815850334239553,0.0012302827215358173,-5.8212528743373064e-05,0.0006526116819596728,21.5,25737,,,,-0.09450815618038177,0.03067924454808235,9.691115379333496,-0.0023950673639774323,0.001636069267988205,0.002131418325006962,30.177059173583984,,,,,,,,,,,,,,,,2779096485
-0.0728015220747967,0.005579405286064385,9.82100704557127,0.00023723656318880163,-0.0008461886266608529,-0.0001592196812582533,21.30000114440918,25738,,,,-0.15682409703731537,-0.019742269068956375,9.769533157348633,1.776963472366333e-06,0.0008371206931769848,0.0002672048285603523,30.08294105529785,,,,,,,,,,,,,,,,2779096485
-0.07552840756239027,0.007683604748975573,9.81502803269123,-0.0015156627121577257,0.0014109335923079584,0.0017403465322137315,21.30000114440918,25739,,,,-0.10169845074415207,0.06909564137458801,9.760027885437012,-0.0007971711456775665,0.0003044884651899338,0.0007998375222086906,30.177059173583984,,,,,,,,,,,,,,,,2779096485
-0.07744990355034431,0.007524052395719847,9.818564575712639,-0.0006326650271992291,-0.00020479291413399818,0.00047580441840437476,21.399999618530273,25740,14.100000381469727,-18.149999618530273,-60.150001525878906,-0.11368229240179062,0.06909564137458801,9.845575332641602,-0.00026454031467437744,-0.0007607764564454556,0.0010661538690328598,30.271177291870117,,,,,,,,,,,,,,,,2779096485
-0.0803331194574084,0.0072500320701892815,9.812833871074233,-0.0006136034518279829,0.00010613114099600716,0.0012008034148770007,21.399999618530273,25741,,,,-0.13045966625213623,0.061892565339803696,9.805177688598633,-0.0010634884238243103,-0.001559725496917963,0.003995631821453571,30.177059173583984,,,,,,,,,,,,,,,,2779096485
-0.0724766374082213,0.007733287288215698,9.814984767427338,0.0006938688184584246,0.0006532709252899836,0.0020997600925581226,21.399999618530273,25742,,,,-0.11607906222343445,0.04028334096074104,9.900229454040527,0.0005344115197658539,0.001369753386825323,-0.0018633250147104263,30.177059173583984,,,,,,,,,,,,,,,,2779096485
-0.074080052205531,0.006518775373367532,9.81524873037154,0.0006967783219293412,-8.264703157693024e-05,-7.069620723237436e-05,21.399999618530273,25743,,,,-0.07533401250839233,0.016273099929094315,9.75527572631836,0.001599673181772232,0.001636069267988205,-0.001330692321062088,30.08294105529785,,,,,,,,,,,,,,,,2779096485
-0.07552709920163429,0.007289247257294542,9.81397397429324,-0.0015441785093337815,-0.0009563036790761672,-0.002321153865619063,21.5,25744,12.75,-18.600000381469727,-60.75,-0.11847582459449768,0.05709051713347435,9.75527572631836,1.776963472366333e-06,-0.0012934091500937939,0.0007998375222086906,30.08294105529785,,,,,,,,,,,,,,,,2779096485
-0.07792734308106586,0.011351178020029773,9.813645150815262,-0.0015398841621055404,0.0009662322986398976,2.7135014739366374e-05,21.5,25745,,,,-0.10169845074415207,0.03067924454808235,9.781414985656738,-0.00026454031467437744,0.001103437040001154,0.002397734671831131,30.08294105529785,,,,,,,,,,,,,,,,2779096485
-0.077692548397973,0.01105469027080973,9.811084205868726,-0.0005654534996502483,0.0014507611661363886,0.000838347193008104,21.5,25746,,,,-0.09690491855144501,0.0786997377872467,9.817059516906738,1.776963472366333e-06,-0.001559725496917963,0.0007998375222086906,30.177059173583984,,,,,,,,,,,,,,,,2779096485
-0.0816978518710932,0.011392823128166342,9.813887892110165,-0.0001222835235984601,-0.0008000360452869518,-0.00015126348755631867,21.5,25747,,,,-0.08492108434438705,0.052288468927145004,9.78616714477539,0.001067042350769043,0.0003044884651899338,0.0013324692845344543,30.177059173583984,,,,,,,,,,,,,,,,2779096485
-0.07828075001212143,0.007922484678053378,9.809878868495355,0.00022460652180589756,7.740655199193515e-06,-0.0001553048344827405,21.5,25748,13.5,-18.299999237060547,-60.45000076293945,-0.10888875275850296,-0.017341244965791702,9.781414985656738,-0.0005308538675308228,-0.0010270928032696247,0.0015987856313586235,30.177059173583984,,,,,,,,,,,,,,,,2779096485
-0.07797702340805686,0.00485768135636546,9.814195269766488,-0.00029658075784360803,-0.0009750856225348766,0.0003932131356658799,21.5,25749,,,,-0.09690491855144501,0.08590281009674072,9.805177688598633,-0.00026454031467437744,-0.001559725496917963,-0.0018633250147104263,30.08294105529785,,,,,,,,,,,,,,,,2779096485
-0.07533548042348845,0.007678520606510067,9.81503098429386,0.0009520356527565202,-0.0012964625848716077,-0.000603714579943251,21.600000381469727,25750,,,,-0.08492108434438705,0.04988744482398033,9.781414985656738,-0.0015961192548274994,-0.001559725496917963,0.0010661538690328598,30.177059173583984,,,,,,,,,,,,,,,,2779096485
-0.07365176965749806,0.0060922681572722764,9.813674629479518,0.0007957547031619463,0.0009170903189629253,0.001292715761366716,21.700000762939453,25751,,,,-0.08731785416603088,0.06429359316825867,9.781414985656738,0.0013333596289157867,3.817211836576462e-05,0.0002672048285603523,30.177059173583984,,,,,,,,,,,,,,,,2779096485
-0.08105264310972035,0.007655043831007584,9.809990767860944,0.0008828400702090653,0.0010905353416651052,0.0005674637645922715,21.700000762939453,25752,12.899999618530273,-18.75,-60.900001525878906,-0.08012755215167999,0.08350178599357605,9.741018295288086,-0.0007971711456775665,-0.001559725496917963,0.0002672048285603523,30.177059173583984,,,,,,,,,,,,,,,,2779096485
-0.07777774137405462,0.009337446386284204,9.813589593434084,-0.0013955541478205672,-0.0009258171427069962,-0.0010486688739131302,21.700000762939453,25753,,,,-0.11607906222343445,0.004267975687980652,9.840822219848633,-0.0005308538675308228,3.817211836576462e-05,0.0002672048285603523,30.177059173583984,,,,,,,,,,,,,,,,2779096485
-0.0769006910867238,0.0074304443609137715,9.81783104641561,0.000663721835125905,-0.0009764305188761238,0.00011825507081022818,21.5,25754,,,,-0.1352531909942627,0.042684365063905716,9.752899169921875,-0.0007971711456775665,-0.003690255107358098,-0.0031949058175086975,30.271177291870117,,,,,,,,,,,,,,,,2779096485
-0.07536116167604136,0.007454594037624924,9.818246176249017,0.0019616466729699905,-0.0007225447160009108,0.00038353920307264877,21.5,25755,,,,-0.05855664238333702,0.052288468927145004,9.748147010803223,-0.0023950673639774323,-0.00022814422845840454,0.0018651019781827927,30.08294105529785,,,,,,,,,,,,,,,,2779096485
-0.07329570862319468,0.009060323238513659,9.811039072501902,-0.0008451187017002666,-0.0014780036172319898,-0.0004203492822487014,21.5,25756,13.350000381469727,-18.299999237060547,-59.849998474121094,-0.14723703265190125,0.042684365063905716,9.843198776245117,0.0013333596289157867,-0.0010270928032696247,0.0002672048285603523,30.177059173583984,,,,,,,,,,,,,,,,2779096485
-0.07715028893722707,0.01269589631875556,9.820068884279141,0.0008982264833012591,-0.0006650737000719557,2.3446536654954733e-05,21.5,25757,,,,-0.13764996826648712,0.042684365063905716,9.748147010803223,0.0018659904599189758,-0.00022814422845840454,8.884817361831665e-07,30.177059173583984,,,,,,,,,,,,,,,,2779096485
-0.08087317339573709,0.012139893003391833,9.817342873757589,-0.0003226397889309492,-0.0010289147656981764,-0.0004237381547125378,21.5,25758,,,,-0.08012755215167999,0.011471051722764969,9.819436073303223,-0.0005308538675308228,0.001369753386825323,-0.000265427865087986,30.177059173583984,,,,,,,,,,,,,,,,2779096485
-0.07310771587342965,0.0045198849496131815,9.818850993254072,-6.413340159620168e-05,-2.9663442053919596e-05,0.0010205340419283922,21.5,25759,,,,-0.0010342234745621681,-0.0053361207246780396,9.769533157348633,0.0005344115197658539,-0.0018260413780808449,0.0013324692845344543,30.08294105529785,,,,,,,,,,,,,,,,2779096485
-0.07711746777312016,0.008267047480292836,9.814179054633046,0.00015433235902437325,0.0007830733959284112,0.0024697663760655077,21.700000762939453,25760,13.949999809265137,-18.75,-59.70000076293945,-0.06574694067239761,0.004267975687980652,9.788543701171875,0.0013333596289157867,0.004299231804907322,-0.0031949058175086975,30.177059173583984,,,,,,,,,,,,,,,,2779096485
-0.08020718038921226,0.005200113304777464,9.814018584591242,-0.001235757825611247,0.0007595643415672969,-0.0012371341250601332,21.700000762939453,25761,,,,-0.12087259441614151,0.01867411658167839,9.774286270141602,0.0021323077380657196,-0.0007607764564454556,0.002930366899818182,30.177059173583984,,,,,,,,,,,,,,,,2779096485
-0.07676985501112676,0.011276934586673197,9.815650260415605,0.0004219600730299578,0.0011154825030049798,-0.0017874031236134475,21.700000762939453,25762,,,,-0.1280628889799118,0.04988744482398033,9.79092025756836,0.0013333596289157867,-0.002092357724905014,0.002397734671831131,30.08294105529785,,,,,,,,,,,,,,,,2779096485
-0.0764231394107946,0.010224479712913027,9.811634025923482,7.556271242387851e-05,-4.052913922677082e-05,-0.0005145386314547866,21.700000762939453,25763,12.899999618530273,-18.0,-60.150001525878906,-0.09930168837308884,0.042684365063905716,9.85032844543457,-0.0015961192548274994,-0.0007607764564454556,0.0010661538690328598,30.177059173583984,,,,,,,,,,,,,,,,2779096485
-0.07558003173964727,0.008265028776666827,9.81328303774305,0.0017379611166487322,-0.0014713323987471877,-0.00015312104240388334,21.700000762939453,25764,,,,-0.08971461653709412,0.01867411658167839,9.71963119506836,-0.00026454031467437744,0.0019023856148123741,0.0007998375222086906,30.177059173583984,,,,,,,,,,,,,,,,2779096485
-0.07649764121041315,0.010816109408935777,9.816389244573191,0.0003358001544552813,0.0003314678571817676,0.0010224848074134691,21.700000762939453,25765,,,,-0.09211138635873795,0.052288468927145004,9.83607006072998,-0.0013298019766807556,0.001369753386825323,0.0007998375222086906,30.271177291870117,,,,,,,,,,,,,,,,2779096485
-0.07878043167569446,0.006168044310048601,9.807143368010912,-6.128381924940017e-05,0.0009648008495638178,0.0007458955564013537,21.600000381469727,25766,,,,-0.08731785416603088,0.10030895471572876,9.712502479553223,0.0018659904599189758,-0.002092357724905014,-0.0007980605587363243,30.177059173583984,,,,,,,,,,,,,,,,2779096485
-0.07352239146960052,0.00718042417849243,9.809044760536505,-0.0005252797148824874,5.76751916112235e-07,-0.0007005404586103957,21.399999618530273,25767,13.949999809265137,-19.200000762939453,-61.04999923706055,-0.10649199038743973,0.0786997377872467,9.748147010803223,0.0008007250726222992,3.817211836576462e-05,0.002664050552994013,30.271177291870117,,,,,,,,,,,,,,,,2779096485
-0.076827572411333,0.006467672264909104,9.815106903996991,0.0013073546029530535,0.0002654347784070482,-0.0014321840419571057,21.399999618530273,25768,,,,-0.11847582459449768,0.08350178599357605,9.774286270141602,0.001599673181772232,-0.00022814422845840454,-0.0007980605587363243,30.177059173583984,,,,,,,,,,,,,,,,2779096485
-0.07823637789162607,0.01120627995976286,9.812195502940531,0.0006253989473030291,-0.0003266059015570935,-0.00024932107821916015,21.5,25769,,,,-0.11128553003072739,0.05949154123663902,9.75052261352539,-0.00026454031467437744,0.0021687019616365433,0.003995631821453571,30.177059173583984,,,,,,,,,,,,,,,,2779096485
-0.07946029330623258,0.007191826115639337,9.811043406500705,0.0011598421111873062,-0.0006595143513346202,0.0006563267916548021,21.5,25770,,,,-0.022605130448937416,0.09070485830307007,9.852704048156738,-0.00026454031467437744,-0.00022814422845840454,0.0010661538690328598,30.177059173583984,,,,,,,,,,,,,,,,2779096485
-0.07292125577483594,0.009869748625742558,9.814220526518122,0.0001957977769119464,0.0007712090133536421,0.00020193159168547235,21.5,25771,13.5,-18.899999618530273,-60.45000076293945,-0.029795434325933456,0.07149666547775269,9.85032844543457,0.0002680942416191101,0.0024350183084607124,-0.0015970086678862572,30.177059173583984,,,,,,,,,,,,,,,,2779096485
-0.07227971042357981,0.010745417398624958,9.815768436607042,-0.0001532960342793075,0.0006849425683360952,0.0006561670019904955,21.5,25772,,,,-0.11607906222343445,0.023476172238588333,9.78616714477539,-0.0010634884238243103,-0.003690255107358098,0.002131418325006962,30.177059173583984,,,,,,,,,,,,,,,,2779096485
-0.07491276775410236,0.00966126140125634,9.81472917358427,-0.0010237702042977703,4.2448301867131603e-05,-0.0009683279622802869,21.5,25773,,,,-0.14004673063755035,0.042684365063905716,9.809930801391602,1.776963472366333e-06,3.817211836576462e-05,-0.002662274055182934,30.271177291870117,,,,,,,,,,,,,,,,2779096485
-0.07561468460881253,0.008693891146992429,9.813299663859137,2.5908074240590072e-05,-0.0008468677327341566,-0.00015395993814149326,21.5,25774,,,,-0.13764996826648712,0.03788232430815697,9.788543701171875,-0.0010634884238243103,0.001636069267988205,0.005060896743088961,30.177059173583984,,,,,,,,,,,,,,,,2779096485
-0.07510113432122621,0.0063065124254326685,9.815296479082466,0.0005728414635515033,0.00017927485983237207,-0.0009720630456834549,21.5,25775,13.649999618530273,-18.450000762939453,-60.900001525878906,-0.09690491855144501,0.013872075825929642,9.767157554626465,-0.0015961192548274994,0.0005708043463528156,-0.0021296413615345955,30.271177291870117,,,,,,,,,,,,,,,,2779096485
-0.0779825559049678,0.01055584617478246,9.813742329529752,0.0012350630956596575,1.353968843298848e-05,0.0004794729227807482,21.5,25776,,,,-0.08971461653709412,0.06429359316825867,9.726759910583496,0.0013333596289157867,-0.0010270928032696247,-0.0007980605587363243,30.177059173583984,,,,,,,,,,,,,,,,2779096485
-0.0738851064528914,0.008898939098634333,9.81306854216447,-0.0006879322773412884,0.0009955137546240897,0.00012053873142927728,21.5,25777,,,,-0.13285642862319946,0.042684365063905716,9.75527572631836,-0.0007971711456775665,0.0003044884651899338,0.0002672048285603523,30.177059173583984,,,,,,,,,,,,,,,,2779096485
-0.07821910752964727,0.00898895832699417,9.817296993149595,0.000626237843040639,-0.0007929720105440624,0.0006655080394497544,21.5,25778,,,,-0.15682409703731537,0.04028334096074104,9.795672416687012,-0.0023950673639774323,-0.001559725496917963,0.002664050552994013,30.177059173583984,,,,,,,,,,,,,,,,2779096485
-0.07567143008388577,0.00777926887080814,9.81259120450345,0.0002761520043501483,-0.00026715083062966386,-0.0007838108474221939,21.5,25779,13.199999809265137,-18.899999618530273,-60.900001525878906,-0.09930168837308884,0.02107514813542366,9.807554244995117,0.001067042350769043,-0.0023586738388985395,0.0005335211753845215,30.177059173583984,,,,,,,,,,,,,,,,2779096485
-0.0766218233370227,0.007547940388627628,9.81817511361351,0.0011479577549045003,9.664789073552532e-06,2.7075093615251287e-05,21.5,25780,,,,-0.13764996826648712,0.045085396617650986,9.78616714477539,0.0002680942416191101,0.0024350183084607124,-0.0005317442119121552,30.177059173583984,,,,,,,,,,,,,,,,2779096485
-0.075020352389979,0.008611909349736149,9.81743508331828,-7.525209907087221e-05,0.0003703766404404346,0.0003922344239720018,21.5,25781,,,,-0.12566612660884857,0.06669461727142334,9.817059516906738,0.0021323077380657196,0.0008371206931769848,-0.000265427865087986,30.177059173583984,,,,,,,,,,,,,,,,2779096485
-0.07526258603851295,0.01139955214025304,9.813829607298706,-0.0016476423169723311,0.0009847279522833914,-0.0010531496424163954,21.5,25782,,,,-0.14244350790977478,0.07149666547775269,9.78616714477539,0.0005344115197658539,-0.0026249901857227087,0.003196683246642351,30.08294105529785,,,,,,,,,,,,,,,,2779096485
-0.07680712460180397,0.009605186300533851,9.814268125780812,0.00018582423869814004,0.0007249365897315117,-0.000153180963527998,21.5,25783,13.350000381469727,-17.850000381469727,-60.150001525878906,-0.12087259441614151,0.052288468927145004,9.769533157348633,-0.0023950673639774323,-0.001559725496917963,0.003196683246642351,30.177059173583984,,,,,,,,,,,,,,,,2779096485
-0.07477464224000777,0.0037466466940505295,9.814465061191836,0.0007132100257422076,-0.0005328344370528516,-0.0004222268108043043,21.5,25784,,,,-0.09690491855144501,0.04748641327023506,9.869338035583496,-0.0007971711456775665,-0.0004944605752825737,-0.0005317442119121552,30.177059173583984,,,,,,,,,,,,,,,,2779096485
-0.07716782097135708,0.0059597813859652736,9.819774172360692,-0.00017686500976453684,0.00015876851957968667,-0.00024183093770478638,21.5,25785,,,,-0.05376310646533966,0.016273099929094315,9.833693504333496,0.001067042350769043,0.001636069267988205,0.0015987856313586235,30.177059173583984,,,,,,,,,,,,,,,,2779096485
-0.07464477808954373,0.009456400366616845,9.811684240530276,-1.4924842892435897e-05,0.00129297553053626,-0.0019675926017299027,21.399999618530273,25786,,,,-0.05376310646533966,0.02107514813542366,9.77903938293457,-0.0005308538675308228,0.0021687019616365433,0.0005335211753845215,30.177059173583984,,,,,,,,,,,,,,,,2779096485
-0.07616898098851338,0.006227334383212513,9.820755673640825,0.0005964037811340534,0.0007802970505110833,0.0010200014097140368,21.399999618530273,25787,13.5,-18.450000762939453,-59.849998474121094,-0.09690491855144501,0.042684365063905716,9.75527572631836,1.776963472366333e-06,-0.0026249901857227087,0.0010661538690328598,30.271177291870117,,,,,,,,,,,,,,,,2779096485
-0.07423096227329821,0.005452114807424333,9.8149352253376,0.0018729634092798052,-0.00019238258353951494,-0.0005234668789479203,21.5,25788,,,,-0.11128553003072739,0.052288468927145004,9.77903938293457,-0.0007971711456775665,0.0005708043463528156,-0.0005317442119121552,30.177059173583984,,,,,,,,,,,,,,,,2779096485
-0.07374959766030877,0.007540874925936594,9.80946672762664,0.0005319819148077594,0.0016322822247887324,0.001019495409110399,21.700000762939453,25789,,,,-0.10649199038743973,0.02107514813542366,9.83607006072998,-0.0010634884238243103,3.817211836576462e-05,-0.000265427865087986,30.177059173583984,,,,,,,,,,,,,,,,2779096485
-0.07452766111101641,0.0066163086652241835,9.812878219837824,-0.0005123367520736494,0.0007212281379390612,-0.0005129141032010022,21.700000762939453,25790,,,,-0.1040952280163765,0.025877196341753006,9.74339485168457,1.776963472366333e-06,0.0003044884651899338,0.0015987856313586235,30.177059173583984,,,,,,,,,,,,,,,,2779096485
-0.0764703525432172,0.007852390802150267,9.818177803681731,-0.0017399341639147748,0.0008061363708100023,0.00012440697288603375,21.700000762939453,25791,12.899999618530273,-18.0,-60.29999923706055,-0.11368229240179062,0.02107514813542366,9.788543701171875,0.0008007250726222992,-0.0018260413780808449,0.0007998375222086906,30.177059173583984,,,,,,,,,,,,,,,,2779096485
-0.07263012681576457,0.007283415446819403,9.81262247654652,0.00014007778938768473,-0.0011480313025360976,0.0011166475250088364,21.5,25792,,,,-0.09930168837308884,0.02107514813542366,9.798048973083496,-0.0018624365329742432,3.817211836576462e-05,-0.0010643759742379189,30.271177291870117,,,,,,,,,,,,,,,,2779096485
-0.06936995348403747,0.0015560541926262265,9.80928324255672,0.001279324832672597,-0.00267588015151208,0.0006653349339800889,21.5,25793,,,,-0.15682409703731537,0.045085396617650986,9.80042552947998,0.0002680942416191101,-0.0031576226465404034,0.0018651019781827927,30.177059173583984,,,,,,,,,,,,,,,,2779096485
-0.07434430369650114,0.006515523017525629,9.815740302976897,-0.00021424247540693204,0.0007326198094235884,0.0007491046654928453,21.5,25794,,,,-0.06335017830133438,-0.012539196759462357,9.783791542053223,0.0002680942416191101,-0.001559725496917963,8.884817361831665e-07,30.177059173583984,,,,,,,,,,,,,,,,2779096485
-0.07781815103054615,0.005182954323956383,9.816722551498204,0.00021726951305315115,0.0007168206063652696,-6.770015102662476e-05,21.5,25795,12.899999618530273,-18.149999618530273,-60.45000076293945,-0.13045966625213623,0.013872075825929642,9.783791542053223,-0.0005308538675308228,3.817211836576462e-05,-0.0005317442119121552,30.271177291870117,,,,,,,,,,,,,,,,2779096485
-0.07549551163481158,0.006338288315842079,9.815601465567038,-0.000763319709380626,0.00032549571847830666,0.0006595492165516526,21.5,25796,,,,-0.15682409703731537,0.0786997377872467,9.859832763671875,0.001067042350769043,0.0003044884651899338,0.003995631821453571,30.271177291870117,,,,,,,,,,,,,,,,2779096485
-0.07166545373951963,0.00577884572763404,9.815053812511682,-0.0004173351387406722,0.00148985637067008,0.0003826337283082445,21.5,25797,,,,-0.06814371049404144,0.004267975687980652,9.824188232421875,-0.0010634884238243103,-0.00022814422845840454,0.0005335211753845215,30.177059173583984,,,,,,,,,,,,,,,,2779096485
-0.0780117510406939,0.00550878804255453,9.811076210388178,0.0004162209609202775,0.0010365530667401776,0.0005665582898278672,21.700000762939453,25798,,,,-0.13045966625213623,0.05949154123663902,9.798048973083496,0.001599673181772232,-0.00022814422845840454,0.0007998375222086906,30.271177291870117,,,,,,,,,,,,,,,,2779096485
-0.07501261437065082,0.004811662390372537,9.815369110924435,-0.0006177047198785198,-0.001919921907580043,0.00012827521434279044,21.700000762939453,25799,12.75,-18.299999237060547,-60.75,-0.12087259441614151,0.09790793061256409,9.831316947937012,-0.0013298019766807556,-0.0023586738388985395,0.0002672048285603523,30.177059173583984,,,,,,,,,,,,,,,,2779096485
-0.07884042936178967,0.008064354682881277,9.812631854423238,0.0006202723622398577,-0.0004445573054261123,0.00048276858460707256,21.700000762939453,25800,,,,-0.12087259441614151,0.052288468927145004,9.77903938293457,0.0008007250726222992,-0.00022814422845840454,-0.0010643759742379189,30.177059173583984,,,,,,,,,,,,,,,,2779096485
-0.07708558115241038,0.007163115664069422,9.815893487417267,0.0009507107301233112,-0.0006775572675959121,-0.0016924015102804703,21.600000381469727,25801,,,,-0.09930168837308884,0.033080268651247025,9.819436073303223,-0.0013298019766807556,0.0003044884651899338,0.0010661538690328598,30.08294105529785,,,,,,,,,,,,,,,,2779096485
-0.0772974982131417,0.004323472563482541,9.809824917682699,-0.0003885263938467206,0.0006419791223456475,0.0006594826375248583,21.5,25802,,,,-0.07533401250839233,0.10030895471572876,9.80042552947998,0.001067042350769043,-0.001559725496917963,-0.0005317442119121552,30.177059173583984,,,,,,,,,,,,,,,,2779096485
-0.08173355142886325,0.01045109788663285,9.81313986633439,0.0005746524130803119,-0.00043291929154244506,0.0007504562197367722,21.5,25803,13.050000190734863,-19.049999237060547,-60.900001525878906,-0.10649199038743973,0.08350178599357605,9.838446617126465,0.0002680942416191101,0.001103437040001154,0.002131418325006962,30.177059173583984,,,,,,,,,,,,,,,,2779096485
-0.07587471196362769,0.007129844437640745,9.807818948755008,-0.0016096722979914656,3.0224392547673756e-05,0.002748366313686815,21.5,25804,,,,-0.18558531999588013,0.033080268651247025,9.809930801391602,-0.0010634884238243103,0.001636069267988205,8.884817361831665e-07,30.271177291870117,,,,,,,,,,,,,,,,2779096485
-0.07647409071680568,0.00436242606678443,9.822889495533138,4.8964391219502405e-05,0.0007055820666423693,-0.002511263618727888,21.5,25805,,,,-0.11368229240179062,0.1147150993347168,9.745770454406738,1.776963472366333e-06,0.0008371206931769848,-0.0010643759742379189,30.177059173583984,,,,,,,,,,,,,,,,2779096485
-0.07472967201173826,0.007334294254874942,9.817141977968353,-0.00012780958282239798,0.0010885313129585924,0.0003853834421148545,21.5,25806,12.899999618530273,-18.600000381469727,-60.29999923706055,-0.09450815618038177,0.016273099929094315,9.78616714477539,0.0005344115197658539,0.001103437040001154,0.0042619481682777405,30.177059173583984,,,,,,,,,,,,,,,,2779096485
-0.07587583341570424,0.006151670380637634,9.808614797965824,-0.0007333791210311687,-0.0007147017066445266,-0.0006021566307162613,21.5,25807,,,,-0.08971461653709412,0.06429359316825867,9.828940391540527,-0.0005308538675308228,-0.0039565712213516235,-0.0010643759742379189,30.177059173583984,,,,,,,,,,,,,,,,2779096485
-0.07784058007207709,0.010592220223451116,9.812625988580033,0.0014444474770254718,0.0006460271271747494,0.0009247268223712022,21.5,25808,,,,-0.017811596393585205,0.045085396617650986,9.795672416687012,1.776963472366333e-06,-0.00022814422845840454,-0.0007980605587363243,30.177059173583984,,,,,,,,,,,,,,,,2779096485
-0.0722933173754419,0.00801082165339154,9.81336844740907,-0.0003880070774377243,0.0006313597675719354,-0.0006080821641009657,21.5,25809,,,,-0.07054048031568527,-0.02454431913793087,9.802802085876465,-0.0005308538675308228,0.001636069267988205,0.002930366899818182,30.271177291870117,,,,,,,,,,,,,,,,2779096485
-0.0771332054839277,0.005438806316852862,9.812829350265138,-0.0007280594567902936,-0.0012190511504177196,0.0023879673837458666,21.600000381469727,25810,13.050000190734863,-18.899999618530273,-60.900001525878906,-0.14004673063755035,0.033080268651247025,9.817059516906738,-0.0005308538675308228,3.817211836576462e-05,-0.0010643759742379189,30.271177291870117,,,,,,,,,,,,,,,,2779096485
-0.07588256212816351,0.005728639820787171,9.815133206886264,-0.0005114911984333602,0.0002809876390662278,0.000484606165746599,21.700000762939453,25811,,,,-0.12566612660884857,-0.0029350966215133667,9.757651329040527,0.0031975731253623962,-0.0010270928032696247,0.002397734671831131,30.177059173583984,,,,,,,,,,,,,,,,2779096485
-0.06852613555990832,-4.8777806650948576e-05,9.82930418737883,-0.000684543404877452,-0.00017305469206109134,-0.00014699577193879546,21.700000762939453,25812,,,,-0.18079178035259247,0.06669461727142334,9.805177688598633,-0.0013298019766807556,0.001369753386825323,-0.0021296413615345955,30.271177291870117,,,,,,,,,,,,,,,,2779096485
-0.0746456004877332,0.006193053804970831,9.804085806581101,0.0010607125981930742,9.322812560324557e-05,-0.00069725811258943,21.700000762939453,25813,,,,-0.11847582459449768,0.045085396617650986,9.82181167602539,0.0005344115197658539,-0.003690255107358098,0.005859845317900181,30.177059173583984,,,,,,,,,,,,,,,,2779096485
-0.07487833917535239,0.008005924427928442,9.816907568412526,0.0003125108108825883,0.001459775966364354,0.0007451698450092943,21.600000381469727,25814,12.600000381469727,-18.299999237060547,-60.45000076293945,-0.06574694067239761,-0.0029350966215133667,9.817059516906738,-0.002128753811120987,0.0008371206931769848,0.0002672048285603523,30.271177291870117,,,,,,,,,,,,,,,,2779096485
-0.07083793425223629,0.009152211636897578,9.824448427429354,-0.000823567070726909,0.00018994747782751994,0.000300408630217119,21.5,25815,,,,-0.0729372426867485,0.013872075825929642,9.776662826538086,0.0013333596289157867,-0.0012934091500937939,-0.002662274055182934,30.271177291870117,,,,,,,,,,,,,,,,2779096485
-0.07616849502594689,0.008948621637874458,9.8186401965193,-0.0009117643075214946,0.0009692483285536858,-0.0030521116849897903,21.5,25816,,,,-0.09450815618038177,0.06669461727142334,9.83607006072998,-0.0015961192548274994,-0.003690255107358098,0.0018651019781827927,30.271177291870117,,,,,,,,,,,,,,,,2779096485
-0.07445267334883138,0.008923014008544523,9.808222160091711,0.0010584489112820637,0.0008481677104253292,0.0006505011268102892,21.399999618530273,25817,,,,-0.14244350790977478,0.02107514813542366,9.852704048156738,0.0008007250726222992,0.0021687019616365433,0.0015987856313586235,30.177059173583984,,,,,,,,,,,,,,,,2779096485
-0.07877818877154137,0.006927189023629667,9.808195334133616,-0.001136528444076823,0.00017334932644766723,-0.001423368978809523,21.30000114440918,25818,13.5,-18.899999618530273,-60.900001525878906,-0.10169845074415207,-0.0005340762436389923,9.771909713745117,0.0023986250162124634,0.001369753386825323,0.0002672048285603523,30.177059173583984,,,,,,,,,,,,,,,,2779096485
-0.07323604737272242,0.011070391299012026,9.81960981666479,0.0002577628771495257,0.0008148382496120351,1.8226740954271122e-05,21.30000114440918,25819,,,,-0.10169845074415207,0.042684365063905716,9.776662826538086,0.001599673181772232,0.0037665991112589836,0.0015987856313586235,30.365293502807617,,,,,,,,,,,,,,,,2779096485
-0.07653947137286832,0.013183674928240257,9.81139700102355,-0.0002336436038148297,0.00032752637879553733,-0.00033778463112092445,21.5,25820,,,,-0.09930168837308884,0.03788232430815697,9.798048973083496,-0.0010634884238243103,-0.002092357724905014,0.0015987856313586235,30.177059173583984,,,,,,,,,,,,,,,,2779096485
-0.07510756397979841,0.012275108762933995,9.823629413742191,0.0002968048184617813,-0.0004960295510408885,-0.00023801595946946552,21.80000114440918,25821,,,,-0.05615987256169319,0.05468948557972908,9.793295860290527,-0.0010634884238243103,-0.004222887568175793,-0.0047928038984537125,30.177059173583984,,,,,,,,,,,,,,,,2779096485
-0.07640448592458805,0.00889774282981892,9.807337389181363,-0.0006618865620593062,0.0007679799305541123,-0.00023867509183473018,21.80000114440918,25822,13.199999809265137,-18.450000762939453,-60.45000076293945,-0.18079178035259247,0.07629871368408203,9.793295860290527,-0.0007971711456775665,0.0024350183084607124,0.002664050552994013,30.271177291870117,,,,,,,,,,,,,,,,2779096485
-0.07913839917852797,0.013196460051204983,9.81744109860972,0.0015040956271306048,0.0009363782630252742,0.0013816320516506823,21.80000114440918,25823,,,,-0.09211138635873795,0.05949154123663902,9.771909713745117,0.0005344115197658539,-0.0004944605752825737,-0.0015970086678862572,30.271177291870117,,,,,,,,,,,,,,,,2779096485
-0.0783554013386835,0.009707766351455526,9.813336241314534,-0.00021660603085813445,-1.2699106026697535e-05,-0.0014217777400691361,21.5,25824,,,,-0.08012755215167999,0.04028334096074104,9.798048973083496,-0.0005308538675308228,-0.0039565712213516235,0.0007998375222086906,30.177059173583984,,,,,,,,,,,,,,,,2779096485
-0.07962462341718246,0.009291539570492724,9.80395907447824,0.00045971038122240163,-0.0001158366764339551,0.0013811926300738389,21.5,25825,,,,-0.14963380992412567,-0.0005340762436389923,9.852704048156738,1.776963472366333e-06,0.001369753386825323,-0.0031949058175086975,30.177059173583984,,,,,,,,,,,,,,,,2779096485
-0.07551412773928223,0.010273078133539185,9.814584358245032,0.0006407054655630695,-0.000298582789179316,-0.00015755520558839243,21.600000381469727,25826,12.899999618530273,-18.600000381469727,-60.599998474121094,-0.1520305722951889,0.03067924454808235,9.852704048156738,0.0034638866782188416,-0.0010270928032696247,0.0010661538690328598,30.177059173583984,,,,,,,,,,,,,,,,2779096485
-0.07803234837716645,0.01348715337335037,9.804530713975234,-0.0003631731004434002,0.000597664122111272,0.0007523537220004138,21.700000762939453,25827,,,,-0.12326936423778534,0.04988744482398033,9.88597297668457,-0.0037266500294208527,0.001369753386825323,0.005859845317900181,30.177059173583984,,,,,,,,,,,,,,,,2779096485
-0.07536254480026909,0.004215247619088136,9.820266305396927,-0.0008842272220393175,-0.00021862137799920182,-0.000238941407941908,21.700000762939453,25828,,,,-0.08492108434438705,0.03067924454808235,9.798048973083496,-0.0013298019766807556,-0.002092357724905014,0.0013324692845344543,30.271177291870117,,,,,,,,,,,,,,,,2779096485
-0.07410842494306762,0.013434891379477011,9.81476567631555,-0.0005403132591326703,0.0014954024036020553,0.000840357879617296,21.700000762939453,25829,,,,-0.11847582459449768,0.001866951584815979,9.771909713745117,-0.00026454031467437744,-0.0010270928032696247,-0.0010643759742379189,30.177059173583984,,,,,,,,,,,,,,,,2779096485
-0.07494831778492886,0.006616121748221775,9.806097305093468,0.0010766782488183793,-0.000203900755174952,0.000383858782401262,21.600000381469727,25830,12.899999618530273,-18.0,-60.75,-0.1040952280163765,0.025877196341753006,9.776662826538086,0.0013333596289157867,-0.0007607764564454556,-0.0010643759742379189,30.271177291870117,,,,,,,,,,,,,,,,2779096485
-0.07391258202876679,0.008803985261410918,9.806881572066112,-0.0011147704181204026,0.0008793666423812007,0.0025602272997711046,21.5,25831,,,,-0.11607906222343445,0.05949154123663902,9.82181167602539,0.0005344115197658539,3.817211836576462e-05,0.003995631821453571,30.177059173583984,,,,,,,,,,,,,,,,2779096485
-0.07773998582081089,0.008342898399870124,9.81917847169794,-0.001094796710082072,-0.00036635358055336995,0.0004834343748750169,21.600000381469727,25832,,,,-0.11128553003072739,0.10270997881889343,9.736265182495117,-0.00026454031467437744,0.0005708043463528156,0.002930366899818182,30.177059173583984,,,,,,,,,,,,,,,,2779096485
-0.07603463102974316,0.015454566973899166,9.81427798936429,-0.0006244758069035138,0.0006704416563002675,-0.0012389450745889418,21.700000762939453,25833,13.199999809265137,-18.75,-60.75,-0.12087259441614151,0.023476172238588333,9.845575332641602,0.0002680942416191101,-0.001559725496917963,0.002397734671831131,30.177059173583984,,,,,,,,,,,,,,,,2779096485
-0.0770180697374023,0.009633373384497022,9.815344003621039,-1.2701103397501877e-05,0.0003174862615549362,-0.0006060315300756972,21.700000762939453,25834,,,,-0.14963380992412567,0.001866951584815979,9.75527572631836,0.0013333596289157867,0.004032915458083153,0.002131418325006962,30.177059173583984,,,,,,,,,,,,,,,,2779096485
-0.07774200443454868,0.013041356322606577,9.801350978613716,-0.0003667683678902998,0.0003903503484787643,-0.0015109403727522415,21.700000762939453,25835,,,,-0.09690491855144501,0.033080268651247025,9.762404441833496,0.0008007250726222992,3.817211836576462e-05,0.0007998375222086906,30.271177291870117,,,,,,,,,,,,,,,,2779096485
-0.07439409616869978,0.00812162605241918,9.81846029820701,-6.239568899686718e-05,-0.0005725022212169752,0.00047917997506285266,21.5,25836,,,,-0.08492108434438705,0.05949154123663902,9.741018295288086,0.0008007250726222992,0.0008371206931769848,-0.0005317442119121552,30.177059173583984,,,,,,,,,,,,,,,,2779096485
-0.07978431819288262,0.0157152040420573,9.81376848297079,0.00011023706957841986,0.0002282836814557548,-0.0003391162116568127,21.5,25837,13.649999618530273,-18.450000762939453,-60.29999923706055,-0.15682409703731537,0.07149666547775269,9.77903938293457,1.776963472366333e-06,0.0019023856148123741,-0.002662274055182934,30.271177291870117,,,,,,,,,,,,,,,,2779096485
-0.0843942712439406,0.013524200323227695,9.80904517151915,-0.0007621013131902878,-0.00020673702171639542,0.001385759951311937,21.5,25838,,,,-0.1040952280163765,-0.0029350966215133667,9.75052261352539,-0.0023950673639774323,-0.002092357724905014,0.002930366899818182,30.271177291870117,,,,,,,,,,,,,,,,2779096485
-0.08196034642047674,0.016098458663795275,9.81055635470444,0.0012902637667749225,0.0005066905398993576,0.0014708146580418259,21.700000762939453,25839,,,,-0.12087259441614151,0.052288468927145004,9.81468391418457,-0.0010634884238243103,0.0003044884651899338,0.0005335211753845215,30.177059173583984,,,,,,,,,,,,,,,,2779096485
-0.08171231860288065,0.018622025113309723,9.819805369679646,-0.0007952709843392744,-0.0007598622605191905,-0.0005995267591578811,21.700000762939453,25840,,,,-0.16641117632389069,0.045085396617650986,9.71963119506836,-0.0005308538675308228,0.0035002827644348145,0.002397734671831131,30.177059173583984,,,,,,,,,,,,,,,,2779096485
-0.0798197186967656,0.016340030197707762,9.809185129790768,0.0008640781004583941,-0.0012828937792109018,0.0010263197593568284,21.700000762939453,25841,12.600000381469727,-18.899999618530273,-60.0,-0.12566612660884857,0.08590281009674072,9.783791542053223,0.0008007250726222992,0.0008371206931769848,8.884817361831665e-07,30.177059173583984,,,,,,,,,,,,,,,,2779096485
-0.07916965030972772,0.014231120426335883,9.818653497412171,0.0006492675284088334,0.00017817630589026402,0.0010187230923995837,21.600000381469727,25842,,,,-0.11607906222343445,0.04988744482398033,9.81468391418457,1.776963472366333e-06,-0.0010270928032696247,-0.0021296413615345955,30.271177291870117,,,,,,,,,,,,,,,,2779096485
-0.077046741528826,0.0150751628424108,9.811352278639374,-6.716940521802814e-05,0.0010469194212120716,0.0010167656690118273,21.5,25843,,,,-0.08492108434438705,0.033080268651247025,9.805177688598633,-0.0007971711456775665,0.0005708043463528156,-0.003993854857981205,30.177059173583984,,,,,,,,,,,,,,,,2779096485
-0.07802603086380192,0.014566711212459744,9.8177067054845,0.000725593724725972,-0.0013814507125747017,0.000207650730087114,21.5,25844,,,,-0.08971461653709412,0.04988744482398033,9.86220932006836,-0.002128753811120987,0.0019023856148123741,0.002397734671831131,30.177059173583984,,,,,,,,,,,,,,,,2779096485
-0.08111607991551698,0.018850362923451703,9.80754620572703,-0.00046774877782941723,-0.0005217290553835401,3.0457308176408448e-05,21.600000381469727,25845,13.949999809265137,-18.0,-60.29999923706055,-0.1352531909942627,0.06909564137458801,9.82656478881836,-0.0005308538675308228,-0.00022814422845840454,0.0015987856313586235,30.271177291870117,,,,,,,,,,,,,,,,2779096485
-0.07860141054254183,0.009904103970785203,9.809374555428006,-0.0002495759649267376,0.00028048829636526974,0.00039315321454176503,21.700000762939453,25846,,,,-0.14004673063755035,0.06429359316825867,9.843198776245117,0.0002680942416191101,0.0003044884651899338,0.003995631821453571,30.177059173583984,,,,,,,,,,,,,,,,2779096485
-0.07757363709612322,0.014696506378932068,9.814360260617386,0.00044746649819490513,0.0006453347052960872,0.0010232571241242845,21.700000762939453,25847,,,,-0.16161765158176422,0.05468948557972908,9.798048973083496,-0.0007971711456775665,0.001103437040001154,-0.0021296413615345955,30.177059173583984,,,,,,,,,,,,,,,,2779096485
-0.0774778650887862,0.012850925280553002,9.818955494932053,-0.0008776758458027448,0.0009700739084859368,0.00030102115726362774,21.700000762939453,25848,,,,-0.11607906222343445,0.10751202702522278,9.774286270141602,-0.0015961192548274994,0.0019023856148123741,0.0018651019781827927,30.271177291870117,,,,,,,,,,,,,,,,2779096485
-0.07985425942072322,0.013131338167565933,9.811571220302929,-9.909404856595907e-05,-0.00012359313305550668,0.0003012541838574084,21.399999618530273,25849,13.649999618530273,-18.75,-60.29999923706055,-0.09930168837308884,0.0786997377872467,9.795672416687012,0.001067042350769043,0.0027013346552848816,0.00532721308991313,30.177059173583984,,,,,,,,,,,,,,,,2779096485
-0.081192376038458,0.013546779897118619,9.80768687387776,0.0006023359724214375,-0.0011166060018891243,-0.0005125878659697097,21.399999618530273,25850,,,,-0.07054048031568527,0.0883038341999054,9.72913646697998,0.0013333596289157867,-0.0012934091500937939,-0.0005317442119121552,30.271177291870117,,,,,,,,,,,,,,,,2779096485
-0.10761943160400221,-0.010175978380533081,9.738802446386929,0.00016653629463579287,0.0003341643077669418,0.00029917026031874255,21.5,25851,,,,-0.08971461653709412,0.09790793061256409,9.859832763671875,-0.00026454031467437744,-0.0007607764564454556,0.002131418325006962,30.271177291870117,,,,,,,,,,,,,,,,2779096485
-0.123975735376955,0.045749663506831,9.598524318185806,-0.003591516872776011,-0.005650391384190913,0.0007012609768383654,21.700000762939453,25852,,,,-0.09930168837308884,0.06669461727142334,9.833693504333496,0.0013333596289157867,-0.00022814422845840454,-0.0021296413615345955,30.271177291870117,,,,,,,,,,,,,,,,2779096485
-0.0716151379230186,0.03410813614623779,9.68016333052665,-0.004011623873946208,-0.009761007130089962,0.00162302762909926,21.700000762939453,25853,13.5,-17.850000381469727,-60.900001525878906,-0.09930168837308884,0.0786997377872467,9.752899169921875,0.0002680942416191101,0.0005708043463528156,0.002397734671831131,30.177059173583984,,,,,,,,,,,,,,,,2779096485
-0.09834621914651447,0.048627362909108206,9.708352368605821,-0.012124338209972055,-0.011481029682005397,0.0007518344055914171,21.700000762939453,25854,,,,-0.13285642862319946,0.045085396617650986,9.817059516906738,-0.0023950673639774323,0.0003044884651899338,-0.0021296413615345955,30.177059173583984,,,,,,,,,,,,,,,,2779096485
-0.019487952027947328,-0.08316400238213441,10.261430693771365,-0.009249162885270518,-0.009423904201624384,-0.0003519060427040234,21.700000762939453,25855,,,,-0.144840270280838,0.0354812927544117,9.805177688598633,-0.00026454031467437744,0.001636069267988205,-0.0021296413615345955,30.177059173583984,,,,,,,,,,,,,,,,2779096485
-0.04359124674568042,0.061001118934935684,9.795358365944335,6.74933343763934e-05,-0.0010759595060311229,-0.0009568630538662856,21.700000762939453,25856,,,,-0.10169845074415207,0.08110074698925018,9.807554244995117,0.0026649385690689087,-0.003423938760533929,0.0005335211753845215,30.08294105529785,,,,,,,,,,,,,,,,2779096485
-0.05371010883235569,-0.041930448101467954,9.978641307124978,-0.0011589056549824324,0.00011113122590826908,0.001668993789198137,21.700000762939453,25857,13.050000190734863,-18.600000381469727,-59.54999923706055,-0.10888875275850296,0.0883038341999054,9.638836860656738,-0.008254025131464005,-0.007418682333081961,0.002664050552994013,30.177059173583984,,,,,,,,,,,,,,,,2779096485
-0.06687300305387174,0.01182927432878972,9.8208963044295,0.0004988055857560931,0.0006358605097832393,-0.00014947916963822762,21.700000762939453,25858,,,,-0.13764996826648712,-0.010138172656297684,9.60081672668457,-0.008520342409610748,-0.01167974155396223,0.002397734671831131,30.177059173583984,,,,,,,,,,,,,,,,2779096485
-0.0969843277447569,0.023637419505329688,9.739646193756904,0.0011075576014456376,0.001443883552668523,-0.0001544326492317334,21.700000762939453,25859,,,,-0.1352531909942627,0.033080268651247025,9.591310501098633,-0.017042461782693863,-0.005288152489811182,0.002397734671831131,30.177059173583984,,,,,,,,,,,,,,,,2779096485
-0.06968825896509713,0.006364606229781168,9.793965396312537,-0.0025512994739451396,-0.0012450369445755867,0.0005920713728954942,21.700000762939453,25860,,,,-0.1592208743095398,-0.019742269068956375,10.04043197631836,-0.0007971711456775665,-0.006886049639433622,0.0018651019781827927,30.177059173583984,,,,,,,,,,,,,,,,2779096485
-0.09401737674931071,0.011506393898829625,9.777754821039517,-0.00124015204137968,-0.0017881220661377824,-0.00013492499438096453,21.700000762939453,25861,12.899999618530273,-18.299999237060547,-61.20000076293945,-0.05615987256169319,-0.029346367344260216,9.691115379333496,-0.0010634884238243103,-0.00022814422845840454,0.003995631821453571,30.271177291870117,,,,,,,,,,,,,,,,2779096485
-0.06374489939502588,0.004503137186197398,9.805372182259635,-0.0035943531393174545,-0.0026046539086473953,-0.0009387668743835583,21.700000762939453,25862,,,,-0.04417603835463524,0.02827822044491768,9.878843307495117,0.0029312558472156525,0.0021687019616365433,-0.003727538511157036,30.271177291870117,,,,,,,,,,,,,,,,2779096485
-0.06467114404678116,-0.004603085337130122,9.78877853379951,-0.0016753924553402507,-0.001982373034713222,-0.0018530567019354382,21.700000762939453,25863,,,,-0.144840270280838,0.0786997377872467,9.712502479553223,0.0008007250726222992,0.001103437040001154,0.002930366899818182,30.177059173583984,,,,,,,,,,,,,,,,2779096485
-0.06669659864223104,-0.014717239104244155,9.862105907854046,-0.0023015415707311813,-0.0022655802409887035,-0.00022143778179765147,21.700000762939453,25864,,,,-0.2071562111377716,0.04748641327023506,9.760027885437012,-0.0010634884238243103,-0.0007607764564454556,-0.000265427865087986,30.271177291870117,,,,,,,,,,,,,,,,2779096485
-0.07236662295951213,0.012787523033336108,9.790785025796021,-0.0022452623193818465,-0.0019682849126435196,-0.0011307941034640638,21.5,25865,12.75,-18.0,-59.849998474121094,-0.08252431452274323,0.045085396617650986,9.653094291687012,-0.0045255981385707855,0.001369753386825323,0.002131418325006962,30.177059173583984,,,,,,,,,,,,,,,,2779096485
-0.06302421690890149,-0.019860297808908987,9.86518592388109,-0.0035363095437580673,-0.00164270015581338,0.0015001094298313768,21.5,25866,,,,-0.07054048031568527,0.02827822044491768,9.667352676391602,1.776963472366333e-06,-0.0026249901857227087,0.002930366899818182,30.177059173583984,,,,,,,,,,,,,,,,2779096485
-0.06818222358976751,0.010669304795244298,9.798923192044125,-0.0005705268214919843,-0.0007525385675718026,0.0003096098517201098,21.5,25867,,,,-0.06814371049404144,0.013872075825929642,9.781414985656738,-0.005590863525867462,-0.001559725496917963,-0.0018633250147104263,30.177059173583984,,,,,,,,,,,,,,,,2779096485
-0.07028565648627322,-0.00644900288611352,9.822789925646896,-0.0021350940037450973,-0.0031725663493012337,0.0007762622505222948,21.5,25868,12.449999809265137,-19.049999237060547,-60.900001525878906,-0.03698573634028435,0.02827822044491768,9.741018295288086,-0.002128753811120987,0.0008371206931769848,0.00452826451510191,30.177059173583984,,,,,,,,,,,,,,,,2779096485
-0.06470650716892826,-0.0010425407416549122,9.81449349371845,-0.0030095629153712266,-0.0024647913470603284,-0.0003097015976190323,21.5,25869,,,,-0.11368229240179062,-0.017341244965791702,9.93349838256836,-0.0015961192548274994,0.0003044884651899338,0.0007998375222086906,30.271177291870117,,,,,,,,,,,,,,,,2779096485
-0.071605269144745,-0.0022529030990496124,9.810375858599214,-0.0023103566338787645,-0.002905105082862636,0.0005948477183128221,21.5,25870,,,,-0.11128553003072739,0.06429359316825867,9.738641738891602,-0.004259280860424042,-0.002092357724905014,-0.0005317442119121552,30.177059173583984,,,,,,,,,,,,,,,,2779096485
-0.07125560038727793,-0.0025305122310264184,9.82697357952373,-0.0026652228466930955,-0.0009286933566645152,0.0009513118277702196,21.5,25871,,,,-0.09690491855144501,0.011471051722764969,9.783791542053223,-0.0031940191984176636,0.0003044884651899338,-0.0015970086678862572,30.177059173583984,,,,,,,,,,,,,,,,2779096485
-0.06963588715312242,-0.0004715092992975578,9.820983283301981,-0.00188316562425764,0.0006664668884006396,-0.0015016792301251356,21.5,25872,12.899999618530273,-18.299999237060547,-60.29999923706055,-0.144840270280838,0.045085396617650986,9.769533157348633,-0.003460332751274109,-0.0004944605752825737,-0.0007980605587363243,30.177059173583984,,,,,,,,,,,,,,,,2779096485
-0.07870716347336013,0.004414314226652974,9.810617292222062,-0.0010269127343624676,-0.0009612771323777112,0.0011250165086768968,21.5,25873,,,,-0.10888875275850296,0.04028334096074104,9.819436073303223,-0.003460332751274109,-0.0031576226465404034,-0.001330692321062088,30.271177291870117,,,,,,,,,,,,,,,,2779096485
-0.07407556639722482,0.010461789539170605,9.81926149019221,-0.002194222837441234,4.698233359183221e-05,-0.0005069552803029006,21.5,25874,,,,-0.07533401250839233,0.004267975687980652,9.833693504333496,-0.00292770192027092,-0.0023586738388985395,-0.0018633250147104263,30.271177291870117,,,,,,,,,,,,,,,,2779096485
-0.08339423504554856,0.009992254029120956,9.822816116449994,-0.003332903958998393,0.0012250649232059376,0.0010320988188825854,21.5,25875,,,,-0.03938250243663788,0.05468948557972908,9.802802085876465,-0.0015961192548274994,0.0005708043463528156,0.0013324692845344543,30.177059173583984,,,,,,,,,,,,,,,,2779096485
-0.08031820414479032,0.014369214707715135,9.80728007578343,-0.0011694650886320298,-0.0008071133958352005,-0.0008719481630926648,21.5,25876,12.899999618530273,-17.850000381469727,-60.45000076293945,-0.10888875275850296,-0.010138172656297684,9.745770454406738,-0.0023950673639774323,-0.0018260413780808449,0.0007998375222086906,30.271177291870117,,,,,,,,,,,,,,,,2779096485
-0.07571322286460505,0.009892814183839742,9.818347801048484,-0.0014310540849073595,-0.000982249525817958,-0.00032716527634721196,21.5,25877,,,,-0.08252431452274323,0.04988744482398033,9.855079650878906,-0.0018624365329742432,-0.0004944605752825737,0.002131418325006962,30.271177291870117,,,,,,,,,,,,,,,,2779096485
-0.08131820296144647,0.009969263237824736,9.81126500087042,-0.003874038315075511,-0.0016841455999929153,0.0018568265395905931,21.5,25878,,,,-0.03698573634028435,0.0354812927544117,9.776662826538086,-0.002661384642124176,-0.0018260413780808449,-0.002662274055182934,30.271177291870117,,,,,,,,,,,,,,,,2779096485
-0.08172226214462601,0.01649790029794181,9.809701921785697,-0.001083425012305583,-0.0006124363214882762,0.0009379294433845384,21.5,25879,,,,-0.08252431452274323,0.033080268651247025,9.864584922790527,1.776963472366333e-06,3.817211836576462e-05,0.00532721308991313,30.177059173583984,,,,,,,,,,,,,,,,2779096485
-0.07953729968215542,0.013208385355958634,9.807330439838458,-0.002396157025708751,0.0006392760138577936,0.0005759259588978441,21.5,25880,12.899999618530273,-18.149999618530273,-60.75,-0.13285642862319946,0.04028334096074104,9.805177688598633,-0.002128753811120987,0.001369753386825323,-0.0034612221643328667,30.177059173583984,,,,,,,,,,,,,,,,2779096485
-0.08242376780024148,0.012888645131638997,9.821857406025623,-0.0012573893514167584,-0.0008787191391526131,0.0013016440088598497,21.5,25881,,,,-0.09690491855144501,0.03067924454808235,9.75527572631836,-0.0018624365329742432,-0.00022814422845840454,-0.0010643759742379189,30.177059173583984,,,,,,,,,,,,,,,,2779096485
-0.0841699060651596,0.017848001806336954,9.817467065240466,-0.001432418954956645,-0.0004469940978067879,-0.0006912127369564955,21.5,25882,,,,-0.14244350790977478,0.03067924454808235,9.752899169921875,-0.00026454031467437744,0.001103437040001154,-0.0015970086678862572,30.177059173583984,,,,,,,,,,,,,,,,2779096485
-0.07930549553793333,0.015742232240605537,9.822138368706499,-0.00031528280647016415,0.0003292640913948718,-0.0012424671051063673,21.5,25883,,,,-0.08731785416603088,0.013872075825929642,9.741018295288086,-0.0005308538675308228,-0.0004944605752825737,-0.0010643759742379189,30.08294105529785,,,,,,,,,,,,,,,,2779096485
-0.08095358150962546,0.011356299545895761,9.823705669703847,-0.0016896936302956953,0.0013149865567944992,0.0010169520902868516,21.200000762939453,25884,13.050000190734863,-18.75,-60.599998474121094,-0.10169845074415207,0.0354812927544117,9.788543701171875,-0.00026454031467437744,-0.002092357724905014,0.0010661538690328598,30.177059173583984,,,,,,,,,,,,,,,,2779096485
-0.07739644766802894,0.015085368510742294,9.817572052625207,-0.002298305830028972,0.0005883297425546925,2.563698663649158e-05,21.200000762939453,25885,,,,-0.144840270280838,0.042684365063905716,9.67210578918457,-0.002128753811120987,-0.00022814422845840454,8.884817361831665e-07,30.177059173583984,,,,,,,,,,,,,,,,2779096485
-0.07588480503231661,0.013525022758038291,9.809777094247655,-0.0021992895013802903,-0.0014843153089721022,-0.0021399989916140883,21.30000114440918,25886,,,,-0.10888875275850296,0.0354812927544117,9.72913646697998,-0.0023950673639774323,-0.003423938760533929,-0.0015970086678862572,30.08294105529785,,,,,,,,,,,,,,,,2779096485
-0.07225982334008905,0.011061307132694983,9.820301463094095,-0.00045490568356077116,0.0003175062352629753,0.0005720976648571643,21.600000381469727,25887,,,,-0.09930168837308884,0.02827822044491768,9.833693504333496,0.001599673181772232,0.0021687019616365433,-0.0031949058175086975,30.177059173583984,,,,,,,,,,,,,,,,2779096485
-0.07303201785826281,0.008610264480114956,9.816093673327392,-0.0014710880537188525,9.911371157187397e-05,0.00030749929657072623,21.700000762939453,25888,13.050000190734863,-18.75,-60.29999923706055,-0.09930168837308884,0.04028334096074104,9.798048973083496,-0.0010634884238243103,-0.00022814422845840454,0.0002672048285603523,30.271177291870117,,,,,,,,,,,,,,,,2779096485
-0.0728558751187733,0.002042823450297919,9.81204448549956,-0.0008620830377274887,0.0009018370639243206,-0.0003312399127870314,21.700000762939453,25889,,,,-0.09211138635873795,0.042684365063905716,9.731513023376465,-0.0013298019766807556,-0.001559725496917963,-0.0015970086678862572,30.177059173583984,,,,,,,,,,,,,,,,2779096485
-0.07056598212367386,-0.05006402931106364,9.873343406313504,0.001408082012590352,0.0004683476783684439,0.0012016223369065721,21.700000762939453,25890,,,,-0.07773078233003616,0.045085396617650986,9.767157554626465,-0.0010634884238243103,0.0003044884651899338,0.002397734671831131,30.08294105529785,,,,,,,,,,,,,,,,2779096485
-0.06861600125297554,0.12967820134319344,9.652801824684012,0.005601049356731435,-0.0005205173170958815,0.00046617709112989976,21.700000762939453,25891,,,,-0.16161765158176422,0.023476172238588333,9.793295860290527,-0.0007971711456775665,-0.001559725496917963,-0.0029285894706845284,30.08294105529785,,,,,,,,,,,,,,,,2779096485
-0.08050077654285202,-0.02502268373162284,9.852227790535679,-0.011068068607781046,-0.001700697146054011,0.0007998844892289599,21.700000762939453,25892,12.600000381469727,-18.899999618530273,-60.599998474121094,-0.08492108434438705,0.006668999791145325,9.845575332641602,0.0029312558472156525,0.0032339664176106453,-0.006124383769929409,30.271177291870117,,,,,,,,,,,,,,,,2779096485
-0.033483374889355315,-0.05877380087228317,10.023469313841387,0.003379034258591329,0.0012844867046199688,-0.001255916068518843,21.600000381469727,25893,,,,-0.09211138635873795,0.07149666547775269,9.83607006072998,0.0023986250162124634,-0.0012934091500937939,-0.0015970086678862572,30.177059173583984,,,,,,,,,,,,,,,,2779096485
-0.08908003445537307,0.05288122004991628,9.696648853189108,0.003101492927496053,0.0013539818927879995,-0.00044166122872559953,21.5,25894,,,,-0.06335017830133438,0.009070027619600296,9.731513023376465,-0.0013298019766807556,-0.0004944605752825737,0.0010661538690328598,30.271177291870117,,,,,,,,,,,,,,,,2779096485
-0.09080550062034687,-0.004389813037382251,9.733159953568943,-0.003788557502574138,-0.0005480876920914562,-0.0017691871018824905,21.5,25895,,,,-0.05855664238333702,-0.0053361207246780396,9.85032844543457,-0.0007971711456775665,0.001369753386825323,0.0015987856313586235,30.271177291870117,,,,,,,,,,,,,,,,2779096485
-0.06750860470912218,0.010477565334173865,9.832413121639252,0.0025912578977542317,-0.000185458364752894,-0.0009692068054339737,21.700000762939453,25896,13.350000381469727,-18.600000381469727,-60.150001525878906,-0.03219220042228699,0.033080268651247025,9.767157554626465,0.006925998255610466,-0.00022814422845840454,0.0013324692845344543,30.271177291870117,,,,,,,,,,,,,,,,2779096485
-0.0698261975705123,0.03708426604198321,9.761396516186686,-0.0011546379393649092,-0.0012444443912371164,0.0004966702854017502,21.700000762939453,25897,,,,-0.11368229240179062,0.1051110029220581,9.714879035949707,-0.009052973240613937,-0.0018260413780808449,-0.0007980605587363243,30.271177291870117,,,,,,,,,,,,,,,,2779096485
-0.07678716275484146,-0.007485831498472357,9.78834632950531,0.0004173661201811417,-0.0014284155580754953,-0.00023248990024552765,21.700000762939453,25898,,,,-0.03698573634028435,0.03788232430815697,9.962013244628906,-0.00292770192027092,0.001636069267988205,-0.000265427865087986,30.271177291870117,,,,,,,,,,,,,,,,2779096485
-0.05452028319418846,-0.03787576971842616,9.95488105538929,0.0016367410222131549,-0.0005270553775270949,0.000122276444028612,21.700000762939453,25899,12.899999618530273,-18.450000762939453,-60.599998474121094,-0.05376310646533966,0.042684365063905716,9.805177688598633,0.0050617847591638565,0.001103437040001154,0.0002672048285603523,30.177059173583984,,,,,,,,,,,,,,,,2779096485
-0.06771547523550904,0.031071146074508227,9.778133261331352,0.0023277114780911453,0.0019065278940576828,0.0013789356010655077,21.700000762939453,25900,,,,-0.09211138635873795,0.023476172238588333,9.776662826538086,-0.005324546247720718,0.0037665991112589836,-0.0021296413615345955,30.177059173583984,,,,,,,,,,,,,,,,2779096485
-0.09594806864429245,0.006795898521138077,9.711983362911438,-0.0016849998089066881,0.0012579549624423874,-0.0005967903611566296,21.700000762939453,25901,,,,-0.11128553003072739,0.03067924454808235,9.890724182128906,0.001067042350769043,0.0003044884651899338,0.0018651019781827927,30.177059173583984,,,,,,,,,,,,,,,,2779096485
-0.06773685758843519,-0.0343736179945033,9.871556677945836,-0.0006636043009506025,-0.002039970550793086,-0.0013162300088919205,21.600000381469727,25902,,,,-0.11607906222343445,-0.019742269068956375,9.805177688598633,0.0005344115197658539,-0.0010270928032696247,0.002131418325006962,30.271177291870117,,,,,,,,,,,,,,,,2779096485
-0.062164698655700686,0.014555907409720544,9.829584328094416,0.0006293470835919391,-0.001786657327548304,-0.00014590387589936667,21.5,25903,13.050000190734863,-18.899999618530273,-60.150001525878906,-0.10888875275850296,-0.0029350966215133667,9.781414985656738,-0.002128753811120987,0.0032339664176106453,-0.0015970086678862572,30.271177291870117,,,,,,,,,,,,,,,,2779096485
-0.07480181876199606,-0.004107680513947165,9.804409922439692,-0.0018197823907493394,-7.989731777031939e-05,0.0003998776962480027,21.5,25904,,,,-0.08492108434438705,0.04748641327023506,9.769533157348633,0.0002680942416191101,0.001369753386825323,0.0005335211753845215,30.177059173583984,,,,,,,,,,,,,,,,2779096485
-0.07708277752221901,0.0187625119323198,9.77010019455417,0.0009965237584605609,0.0008588669600311941,-0.0003353145492268508,21.600000381469727,25905,,,,-0.07533401250839233,0.05949154123663902,9.788543701171875,0.0029312558472156525,-0.0012934091500937939,0.0015987856313586235,30.177059173583984,,,,,,,,,,,,,,,,2779096485
-0.07202596320039333,-0.013162500861612404,9.874508616835906,-0.002466677530889415,-0.0002603664277993113,0.00031668720226835805,21.700000762939453,25906,,,,-0.09211138635873795,0.011471051722764969,9.736265182495117,-0.0013298019766807556,0.002967650070786476,0.0018651019781827927,30.271177291870117,,,,,,,,,,,,,,,,2779096485
-0.06415561252719293,-0.00991650019778988,9.847306385449196,0.00111386929318575,-0.0007989774387609202,-0.00014658298197266998,21.700000762939453,25907,13.199999809265137,-18.450000762939453,-61.20000076293945,-0.14244350790977478,0.004267975687980652,9.78616714477539,-0.0023950673639774323,-0.0012934091500937939,0.0005335211753845215,30.177059173583984,,,,,,,,,,,,,,,,2779096485
-0.08864969591186644,0.012827261588048111,9.754381752317384,0.0025777090658015644,0.0010502483725517925,-0.00124602242513719,21.700000762939453,25908,,,,-0.07773078233003616,0.04028334096074104,9.793295860290527,0.0021323077380657196,-0.0004944605752825737,-0.0047928038984537125,30.271177291870117,,,,,,,,,,,,,,,,2779096485
-0.08423304381706914,-0.0029064023228695082,9.80973315646671,-0.0005351267529453839,-4.795270071435067e-05,-0.001327275469437117,21.399999618530273,25909,,,,-0.1352531909942627,0.016273099929094315,9.74339485168457,-0.0039929673075675964,-0.005820784717798233,0.0018651019781827927,30.177059173583984,,,,,,,,,,,,,,,,2779096485
-0.06958153410914583,0.001979869803886804,9.817951501692624,0.0013025209656077777,-0.0019150216912079722,0.0004837606121063096,21.399999618530273,25910,,,,-0.14244350790977478,0.061892565339803696,9.795672416687012,1.776963472366333e-06,0.001369753386825323,0.0005335211753845215,30.177059173583984,,,,,,,,,,,,,,,,2779096485
